"STUDYID","DOMAIN","USUBJID","DSSEQ","DSTERM","DSDECOD","DSCAT","VISITNUM","VISIT","DSDTC","DSSTDTC","DSSTDY"
"CDISCPILOT01","DS","01-701-1015",1,"Randomized","RANDOMIZED","PROTOCOL MILESTONE",NA,NA,"2014-01-02",2014-01-02,1
"CDISCPILOT01","DS","01-701-1015",2,"Protocol Completed","COMPLETED","DISPOSITION EVENT",NA,NA,"2014-07-02",2014-07-02,182
"CDISCPILOT01","DS","01-701-1015",3,NA,"FINAL LAB VISIT",NA,NA,NA,"2014-07-02",2014-07-02,182
"CDISCPILOT01","DS","01-701-1023",1,"Randomized","RANDOMIZED","PROTOCOL MILESTONE",NA,NA,"2012-08-05",2012-08-05,1
"CDISCPILOT01","DS","01-701-1023",2,"Adverse Event","ADVERSE EVENT","DISPOSITION EVENT",NA,NA,"2012-09-02",2012-09-02,29
"CDISCPILOT01","DS","01-701-1023",3,NA,"FINAL LAB VISIT",NA,NA,NA,"2012-09-02",2012-09-02,29
"CDISCPILOT01","DS","01-701-1023",4,NA,"FINAL RETRIEVAL VISIT",NA,NA,NA,"2013-02-18",2013-02-18,198
"CDISCPILOT01","DS","01-701-1028",1,"Randomized","RANDOMIZED","PROTOCOL MILESTONE",NA,NA,"2013-07-19",2013-07-19,1
"CDISCPILOT01","DS","01-701-1028",2,"Protocol Completed","COMPLETED","DISPOSITION EVENT",NA,NA,"2014-01-14",2014-01-14,180
"CDISCPILOT01","DS","01-701-1028",3,NA,"FINAL LAB VISIT",NA,NA,NA,"2014-01-14",2014-01-14,180
"CDISCPILOT01","DS","01-701-1033",1,"Randomized","RANDOMIZED","PROTOCOL MILESTONE",NA,NA,"2014-03-18",2014-03-18,1
"CDISCPILOT01","DS","01-701-1033",2,NA,"FINAL LAB VISIT",NA,NA,NA,"2014-04-14",2014-04-14,28
"CDISCPILOT01","DS","01-701-1033",3,"Sponsor Decision (Study or Patient Discontinued by the Sponsor)","STUDY TERMINATED BY SPONSOR","DISPOSITION EVENT",NA,NA,"2014-04-14",2014-04-14,28
"CDISCPILOT01","DS","01-701-1033",4,NA,"FINAL RETRIEVAL VISIT",NA,NA,NA,"2014-09-15",2014-09-15,182
"CDISCPILOT01","DS","01-701-1034",1,"Randomized","RANDOMIZED","PROTOCOL MILESTONE",NA,NA,"2014-07-01",2014-07-01,1
"CDISCPILOT01","DS","01-701-1034",2,"Protocol Completed","COMPLETED","DISPOSITION EVENT",NA,NA,"2014-12-30",2014-12-30,183
"CDISCPILOT01","DS","01-701-1034",3,NA,"FINAL LAB VISIT",NA,NA,NA,"2014-12-30",2014-12-30,183
"CDISCPILOT01","DS","01-701-1047",1,"Randomized","RANDOMIZED","PROTOCOL MILESTONE",NA,NA,"2013-02-12",2013-02-12,1
"CDISCPILOT01","DS","01-701-1047",2,"Adverse Event","ADVERSE EVENT","DISPOSITION EVENT",NA,NA,"2013-03-29",2013-03-29,46
"CDISCPILOT01","DS","01-701-1047",3,NA,"FINAL LAB VISIT",NA,NA,NA,"2013-04-07",2013-04-07,55
"CDISCPILOT01","DS","01-701-1047",4,NA,"FINAL RETRIEVAL VISIT",NA,NA,NA,"2013-07-28",2013-07-28,167
"CDISCPILOT01","DS","01-701-1057",1,"Screen Failure","SCREEN FAILURE","DISPOSITION EVENT",NA,NA,"2013-12-20",2013-12-20,NA
"CDISCPILOT01","DS","01-701-1097",1,"Randomized","RANDOMIZED","PROTOCOL MILESTONE",NA,NA,"2014-01-01",2014-01-01,1
"CDISCPILOT01","DS","01-701-1097",2,"Protocol Completed","COMPLETED","DISPOSITION EVENT",NA,NA,"2014-07-09",2014-07-09,190
"CDISCPILOT01","DS","01-701-1097",3,NA,"FINAL LAB VISIT",NA,NA,NA,"2014-07-09",2014-07-09,190
"CDISCPILOT01","DS","01-701-1111",1,"Randomized","RANDOMIZED","PROTOCOL MILESTONE",NA,NA,"2012-09-07",2012-09-07,1
"CDISCPILOT01","DS","01-701-1111",2,"Adverse Event","ADVERSE EVENT","DISPOSITION EVENT",NA,NA,"2012-09-17",2012-09-17,11
"CDISCPILOT01","DS","01-701-1111",3,NA,"FINAL LAB VISIT",NA,NA,NA,"2012-09-17",2012-09-17,11
"CDISCPILOT01","DS","01-701-1111",4,NA,"FINAL RETRIEVAL VISIT",NA,NA,NA,"2013-02-22",2013-02-22,169
"CDISCPILOT01","DS","01-701-1115",1,"Randomized","RANDOMIZED","PROTOCOL MILESTONE",NA,NA,"2012-11-30",2012-11-30,1
"CDISCPILOT01","DS","01-701-1115",2,"Adverse Event","ADVERSE EVENT","DISPOSITION EVENT",NA,NA,"2013-01-23",2013-01-23,55
"CDISCPILOT01","DS","01-701-1115",3,NA,"FINAL LAB VISIT",NA,NA,NA,"2013-01-23",2013-01-23,55
"CDISCPILOT01","DS","01-701-1115",4,NA,"FINAL RETRIEVAL VISIT",NA,NA,NA,"2013-05-20",2013-05-20,172
"CDISCPILOT01","DS","01-701-1118",1,"Randomized","RANDOMIZED","PROTOCOL MILESTONE",NA,NA,"2014-03-12",2014-03-12,1
"CDISCPILOT01","DS","01-701-1118",2,"Protocol Completed","COMPLETED","DISPOSITION EVENT",NA,NA,"2014-09-09",2014-09-09,182
"CDISCPILOT01","DS","01-701-1118",3,NA,"FINAL LAB VISIT",NA,NA,NA,"2014-09-09",2014-09-09,182
"CDISCPILOT01","DS","01-701-1130",1,"Randomized","RANDOMIZED","PROTOCOL MILESTONE",NA,NA,"2014-02-15",2014-02-15,1
"CDISCPILOT01","DS","01-701-1130",2,"Protocol Completed","COMPLETED","DISPOSITION EVENT",NA,NA,"2014-08-16",2014-08-16,183
"CDISCPILOT01","DS","01-701-1130",3,NA,"FINAL LAB VISIT",NA,NA,NA,"2014-08-16",2014-08-16,183
"CDISCPILOT01","DS","01-701-1133",1,"Randomized","RANDOMIZED","PROTOCOL MILESTONE",NA,NA,"2012-10-28",2012-10-28,1
"CDISCPILOT01","DS","01-701-1133",2,"Protocol Completed","COMPLETED","DISPOSITION EVENT",NA,NA,"2013-04-29",2013-04-29,184
"CDISCPILOT01","DS","01-701-1133",3,NA,"FINAL LAB VISIT",NA,NA,NA,"2013-04-29",2013-04-29,184
"CDISCPILOT01","DS","01-701-1145",1,"Screen Failure","SCREEN FAILURE","DISPOSITION EVENT",NA,NA,"2013-09-05",2013-09-05,NA
"CDISCPILOT01","DS","01-701-1146",1,"Randomized","RANDOMIZED","PROTOCOL MILESTONE",NA,NA,"2013-05-20",2013-05-20,1
"CDISCPILOT01","DS","01-701-1146",2,"Adverse Event","ADVERSE EVENT","DISPOSITION EVENT",NA,NA,"2013-06-30",2013-06-30,42
"CDISCPILOT01","DS","01-701-1146",3,NA,"FINAL LAB VISIT",NA,NA,NA,"2013-06-30",2013-06-30,42
"CDISCPILOT01","DS","01-701-1148",1,"Randomized","RANDOMIZED","PROTOCOL MILESTONE",NA,NA,"2013-08-23",2013-08-23,1
"CDISCPILOT01","DS","01-701-1148",2,"Protocol Completed","COMPLETED","DISPOSITION EVENT",NA,NA,"2014-02-20",2014-02-20,182
"CDISCPILOT01","DS","01-701-1148",3,NA,"FINAL LAB VISIT",NA,NA,NA,"2014-02-20",2014-02-20,182
"CDISCPILOT01","DS","01-701-1153",1,"Randomized","RANDOMIZED","PROTOCOL MILESTONE",NA,NA,"2013-09-23",2013-09-23,1
"CDISCPILOT01","DS","01-701-1153",2,"Protocol Completed","COMPLETED","DISPOSITION EVENT",NA,NA,"2014-04-01",2014-04-01,191
"CDISCPILOT01","DS","01-701-1153",3,NA,"FINAL LAB VISIT",NA,NA,NA,"2014-04-01",2014-04-01,191
"CDISCPILOT01","DS","01-701-1162",1,"Screen Failure","SCREEN FAILURE","DISPOSITION EVENT",NA,NA,"2013-04-18",2013-04-18,NA
"CDISCPILOT01","DS","01-701-1176",1,"Screen Failure","SCREEN FAILURE","DISPOSITION EVENT",NA,NA,"2012-09-30",2012-09-30,NA
"CDISCPILOT01","DS","01-701-1180",1,"Randomized","RANDOMIZED","PROTOCOL MILESTONE",NA,NA,"2013-02-12",2013-02-12,1
"CDISCPILOT01","DS","01-701-1180",2,"Adverse Event","ADVERSE EVENT","DISPOSITION EVENT",NA,NA,"2013-03-23",2013-03-23,40
"CDISCPILOT01","DS","01-701-1180",3,NA,"FINAL LAB VISIT",NA,NA,NA,"2013-03-23",2013-03-23,40
"CDISCPILOT01","DS","01-701-1181",1,"Randomized","RANDOMIZED","PROTOCOL MILESTONE",NA,NA,"2013-12-05",2013-12-05,1
"CDISCPILOT01","DS","01-701-1181",2,"Adverse Event","ADVERSE EVENT","DISPOSITION EVENT",NA,NA,"2013-12-12",2013-12-12,8
"CDISCPILOT01","DS","01-701-1181",3,NA,"FINAL LAB VISIT",NA,NA,NA,"2013-12-12",2013-12-12,8
"CDISCPILOT01","DS","01-701-1181",4,NA,"FINAL RETRIEVAL VISIT",NA,NA,NA,"2014-05-23",2014-05-23,170
"CDISCPILOT01","DS","01-701-1188",1,"Randomized","RANDOMIZED","PROTOCOL MILESTONE",NA,NA,"2013-02-15",2013-02-15,1
"CDISCPILOT01","DS","01-701-1188",2,"Adverse Event","ADVERSE EVENT","DISPOSITION EVENT",NA,NA,"2013-03-25",2013-03-25,39
"CDISCPILOT01","DS","01-701-1188",3,NA,"FINAL LAB VISIT",NA,NA,NA,"2013-03-25",2013-03-25,39
"CDISCPILOT01","DS","01-701-1188",4,NA,"FINAL RETRIEVAL VISIT",NA,NA,NA,"2013-08-04",2013-08-04,171
"CDISCPILOT01","DS","01-701-1192",1,"Randomized","RANDOMIZED","PROTOCOL MILESTONE",NA,NA,"2012-07-22",2012-07-22,1
"CDISCPILOT01","DS","01-701-1192",2,"Protocol Completed","COMPLETED","DISPOSITION EVENT",NA,NA,"2013-01-20",2013-01-20,183
"CDISCPILOT01","DS","01-701-1192",3,NA,"FINAL LAB VISIT",NA,NA,NA,"2013-01-20",2013-01-20,183
"CDISCPILOT01","DS","01-701-1203",1,"Randomized","RANDOMIZED","PROTOCOL MILESTONE",NA,NA,"2013-02-02",2013-02-02,1
"CDISCPILOT01","DS","01-701-1203",2,"Protocol Completed","COMPLETED","DISPOSITION EVENT",NA,NA,"2013-08-03",2013-08-03,183
"CDISCPILOT01","DS","01-701-1203",3,NA,"FINAL LAB VISIT",NA,NA,NA,"2013-08-03",2013-08-03,183
"CDISCPILOT01","DS","01-701-1211",1,"Randomized","RANDOMIZED","PROTOCOL MILESTONE",NA,NA,"2012-11-15",2012-11-15,1
"CDISCPILOT01","DS","01-701-1211",2,NA,"FINAL LAB VISIT",NA,NA,NA,"2013-01-08",2013-01-08,55
"CDISCPILOT01","DS","01-701-1211",3,"Death","DEATH","DISPOSITION EVENT",NA,NA,"2013-01-14",2013-01-14,61
"CDISCPILOT01","DS","01-701-1234",1,"Randomized","RANDOMIZED","PROTOCOL MILESTONE",NA,NA,"2013-03-30",2013-03-30,1
"CDISCPILOT01","DS","01-701-1234",2,"Protocol Completed","COMPLETED","DISPOSITION EVENT",NA,NA,"2013-09-22",2013-09-22,177
"CDISCPILOT01","DS","01-701-1234",3,NA,"FINAL LAB VISIT",NA,NA,NA,"2013-09-22",2013-09-22,177
"CDISCPILOT01","DS","01-701-1239",1,"Randomized","RANDOMIZED","PROTOCOL MILESTONE",NA,NA,"2014-01-11",2014-01-11,1
"CDISCPILOT01","DS","01-701-1239",2,"Protocol Completed","COMPLETED","DISPOSITION EVENT",NA,NA,"2014-07-11",2014-07-11,182
"CDISCPILOT01","DS","01-701-1239",3,NA,"FINAL LAB VISIT",NA,NA,NA,"2014-07-11",2014-07-11,182
"CDISCPILOT01","DS","01-701-1240",1,"Screen Failure","SCREEN FAILURE","DISPOSITION EVENT",NA,NA,"2013-09-22",2013-09-22,NA
"CDISCPILOT01","DS","01-701-1275",1,"Randomized","RANDOMIZED","PROTOCOL MILESTONE",NA,NA,"2014-02-07",2014-02-07,1
"CDISCPILOT01","DS","01-701-1275",2,NA,"FINAL LAB VISIT",NA,NA,NA,"2014-06-14",2014-06-14,128
"CDISCPILOT01","DS","01-701-1275",3,"Withdraw Consent","WITHDRAWAL BY SUBJECT","DISPOSITION EVENT",NA,NA,"2014-06-14",2014-06-14,128
"CDISCPILOT01","DS","01-701-1287",1,"Randomized","RANDOMIZED","PROTOCOL MILESTONE",NA,NA,"2014-01-25",2014-01-25,1
"CDISCPILOT01","DS","01-701-1287",2,"Protocol Completed","COMPLETED","DISPOSITION EVENT",NA,NA,"2014-07-26",2014-07-26,183
"CDISCPILOT01","DS","01-701-1287",3,NA,"FINAL LAB VISIT",NA,NA,NA,"2014-07-26",2014-07-26,183
"CDISCPILOT01","DS","01-701-1294",1,"Randomized","RANDOMIZED","PROTOCOL MILESTONE",NA,NA,"2013-03-24",2013-03-24,1
"CDISCPILOT01","DS","01-701-1294",2,"Adverse Event","ADVERSE EVENT","DISPOSITION EVENT",NA,NA,"2013-06-14",2013-06-14,83
"CDISCPILOT01","DS","01-701-1294",3,NA,"FINAL LAB VISIT",NA,NA,NA,"2013-06-14",2013-06-14,83
"CDISCPILOT01","DS","01-701-1294",4,NA,"FINAL RETRIEVAL VISIT",NA,NA,NA,"2013-10-08",2013-10-08,199
"CDISCPILOT01","DS","01-701-1302",1,"Randomized","RANDOMIZED","PROTOCOL MILESTONE",NA,NA,"2013-08-29",2013-08-29,1
"CDISCPILOT01","DS","01-701-1302",2,"Adverse Event","ADVERSE EVENT","DISPOSITION EVENT",NA,NA,"2013-11-05",2013-11-05,69
"CDISCPILOT01","DS","01-701-1302",3,NA,"FINAL LAB VISIT",NA,NA,NA,"2013-11-05",2013-11-05,69
"CDISCPILOT01","DS","01-701-1302",4,NA,"FINAL RETRIEVAL VISIT",NA,NA,NA,"2014-02-13",2014-02-13,169
"CDISCPILOT01","DS","01-701-1307",1,"Screen Failure","SCREEN FAILURE","DISPOSITION EVENT",NA,NA,"2013-12-08",2013-12-08,NA
"CDISCPILOT01","DS","01-701-1317",1,"Randomized","RANDOMIZED","PROTOCOL MILESTONE",NA,NA,"2014-05-22",2014-05-22,1
"CDISCPILOT01","DS","01-701-1317",2,"Protocol Completed","COMPLETED","DISPOSITION EVENT",NA,NA,"2014-11-20",2014-11-20,183
"CDISCPILOT01","DS","01-701-1317",3,NA,"FINAL LAB VISIT",NA,NA,NA,"2014-11-20",2014-11-20,183
"CDISCPILOT01","DS","01-701-1324",1,"Randomized","RANDOMIZED","PROTOCOL MILESTONE",NA,NA,"2012-10-02",2012-10-02,1
"CDISCPILOT01","DS","01-701-1324",2,"Protocol Completed","COMPLETED","DISPOSITION EVENT",NA,NA,"2013-04-02",2013-04-02,183
"CDISCPILOT01","DS","01-701-1324",3,NA,"FINAL LAB VISIT",NA,NA,NA,"2013-04-02",2013-04-02,183
"CDISCPILOT01","DS","01-701-1341",1,"Randomized","RANDOMIZED","PROTOCOL MILESTONE",NA,NA,"2013-01-05",2013-01-05,1
"CDISCPILOT01","DS","01-701-1341",2,"Adverse Event","ADVERSE EVENT","DISPOSITION EVENT",NA,NA,"2013-02-07",2013-02-07,34
"CDISCPILOT01","DS","01-701-1341",3,NA,"FINAL LAB VISIT",NA,NA,NA,"2013-02-07",2013-02-07,34
"CDISCPILOT01","DS","01-701-1345",1,"Randomized","RANDOMIZED","PROTOCOL MILESTONE",NA,NA,"2013-10-08",2013-10-08,1
"CDISCPILOT01","DS","01-701-1345",2,NA,"FINAL LAB VISIT",NA,NA,NA,"2014-03-18",2014-03-18,162
"CDISCPILOT01","DS","01-701-1345",3,"Sponsor Decision (Study or Patient Discontinued by the Sponsor)","STUDY TERMINATED BY SPONSOR","DISPOSITION EVENT",NA,NA,"2014-03-18",2014-03-18,162
"CDISCPILOT01","DS","01-701-1356",1,"Screen Failure","SCREEN FAILURE","DISPOSITION EVENT",NA,NA,"2014-04-01",2014-04-01,NA
"CDISCPILOT01","DS","01-701-1360",1,"Randomized","RANDOMIZED","PROTOCOL MILESTONE",NA,NA,"2013-07-31",2013-07-31,1
"CDISCPILOT01","DS","01-701-1360",2,NA,"FINAL LAB VISIT",NA,NA,NA,"2013-08-14",2013-08-14,15
"CDISCPILOT01","DS","01-701-1360",3,"Pmd Decision Due to Ae's","PHYSICIAN DECISION","DISPOSITION EVENT",NA,NA,"2013-08-14",2013-08-14,15
"CDISCPILOT01","DS","01-701-1360",4,NA,"FINAL RETRIEVAL VISIT",NA,NA,NA,"2014-02-11",2014-02-11,196
"CDISCPILOT01","DS","01-701-1363",1,"Randomized","RANDOMIZED","PROTOCOL MILESTONE",NA,NA,"2013-05-30",2013-05-30,1
"CDISCPILOT01","DS","01-701-1363",2,"Protocol Completed","COMPLETED","DISPOSITION EVENT",NA,NA,"2013-11-27",2013-11-27,182
"CDISCPILOT01","DS","01-701-1363",3,NA,"FINAL LAB VISIT",NA,NA,NA,"2013-11-27",2013-11-27,182
"CDISCPILOT01","DS","01-701-1369",1,"Screen Failure","SCREEN FAILURE","DISPOSITION EVENT",NA,NA,"2013-09-18",2013-09-18,NA
"CDISCPILOT01","DS","01-701-1383",1,"Randomized","RANDOMIZED","PROTOCOL MILESTONE",NA,NA,"2013-02-04",2013-02-04,1
"CDISCPILOT01","DS","01-701-1383",2,"Protocol Completed","COMPLETED","DISPOSITION EVENT",NA,NA,"2013-08-06",2013-08-06,184
"CDISCPILOT01","DS","01-701-1383",3,NA,"FINAL LAB VISIT",NA,NA,NA,"2013-08-06",2013-08-06,184
"CDISCPILOT01","DS","01-701-1386",1,"Screen Failure","SCREEN FAILURE","DISPOSITION EVENT",NA,NA,"2013-12-28",2013-12-28,NA
"CDISCPILOT01","DS","01-701-1387",1,"Randomized","RANDOMIZED","PROTOCOL MILESTONE",NA,NA,"2014-03-12",2014-03-12,1
"CDISCPILOT01","DS","01-701-1387",2,NA,"FINAL LAB VISIT",NA,NA,NA,"2014-03-25",2014-03-25,14
"CDISCPILOT01","DS","01-701-1387",3,"Protocol Violation","PROTOCOL VIOLATION","DISPOSITION EVENT",NA,NA,"2014-03-25",2014-03-25,14
"CDISCPILOT01","DS","01-701-1387",4,NA,"FINAL RETRIEVAL VISIT",NA,NA,NA,"2014-08-27",2014-08-27,169
"CDISCPILOT01","DS","01-701-1392",1,"Randomized","RANDOMIZED","PROTOCOL MILESTONE",NA,NA,"2012-10-28",2012-10-28,1
"CDISCPILOT01","DS","01-701-1392",2,"Protocol Completed","COMPLETED","DISPOSITION EVENT",NA,NA,"2013-04-28",2013-04-28,183
"CDISCPILOT01","DS","01-701-1392",3,NA,"FINAL LAB VISIT",NA,NA,NA,"2013-04-28",2013-04-28,183
"CDISCPILOT01","DS","01-701-1411",1,"Screen Failure","SCREEN FAILURE","DISPOSITION EVENT",NA,NA,"2012-11-14",2012-11-14,NA
"CDISCPILOT01","DS","01-701-1415",1,"Randomized","RANDOMIZED","PROTOCOL MILESTONE",NA,NA,"2013-09-23",2013-09-23,1
"CDISCPILOT01","DS","01-701-1415",2,"Protocol Completed","COMPLETED","DISPOSITION EVENT",NA,NA,"2014-03-24",2014-03-24,183
"CDISCPILOT01","DS","01-701-1415",3,NA,"FINAL LAB VISIT",NA,NA,NA,"2014-03-24",2014-03-24,183
"CDISCPILOT01","DS","01-701-1429",1,"Randomized","RANDOMIZED","PROTOCOL MILESTONE",NA,NA,"2013-03-19",2013-03-19,1
"CDISCPILOT01","DS","01-701-1429",2,NA,"FINAL LAB VISIT",NA,NA,NA,"2013-04-30",2013-04-30,43
"CDISCPILOT01","DS","01-701-1429",3,"Withdraw Consent Due to Compliancy Issue","WITHDRAWAL BY SUBJECT","DISPOSITION EVENT",NA,NA,"2013-04-30",2013-04-30,43
"CDISCPILOT01","DS","01-701-1440",1,"Randomized","RANDOMIZED","PROTOCOL MILESTONE",NA,NA,"2013-08-08",2013-08-08,1
"CDISCPILOT01","DS","01-701-1440",2,"Protocol Completed","COMPLETED","DISPOSITION EVENT",NA,NA,"2014-02-05",2014-02-05,182
"CDISCPILOT01","DS","01-701-1440",3,NA,"FINAL LAB VISIT",NA,NA,NA,"2014-02-05",2014-02-05,182
"CDISCPILOT01","DS","01-701-1442",1,"Randomized","RANDOMIZED","PROTOCOL MILESTONE",NA,NA,"2013-10-26",2013-10-26,1
"CDISCPILOT01","DS","01-701-1442",2,"Protocol Completed","COMPLETED","DISPOSITION EVENT",NA,NA,"2014-04-26",2014-04-26,183
"CDISCPILOT01","DS","01-701-1442",3,NA,"FINAL LAB VISIT",NA,NA,NA,"2014-04-26",2014-04-26,183
"CDISCPILOT01","DS","01-701-1444",1,"Randomized","RANDOMIZED","PROTOCOL MILESTONE",NA,NA,"2013-01-05",2013-01-05,1
"CDISCPILOT01","DS","01-701-1444",2,"Adverse Event","ADVERSE EVENT","DISPOSITION EVENT",NA,NA,"2013-02-13",2013-02-13,40
"CDISCPILOT01","DS","01-701-1444",3,NA,"FINAL LAB VISIT",NA,NA,NA,"2013-02-13",2013-02-13,40
"CDISCPILOT01","DS","01-701-1444",4,NA,"FINAL RETRIEVAL VISIT",NA,NA,NA,"2013-06-20",2013-06-20,167
"CDISCPILOT01","DS","01-702-1082",1,"Randomized","RANDOMIZED","PROTOCOL MILESTONE",NA,NA,"2013-07-26",2013-07-26,1
"CDISCPILOT01","DS","01-702-1082",2,NA,"FINAL LAB VISIT",NA,NA,NA,"2013-11-17",2013-11-17,115
"CDISCPILOT01","DS","01-702-1082",3,"Pt Finds Patches""Inconvenient & Itchy;pt Prefers'pills'""","WITHDRAWAL BY SUBJECT","DISPOSITION EVENT",NA,NA,"2013-11-17",2013-11-17,115
"CDISCPILOT01","DS","01-703-1042",1,"Randomized","RANDOMIZED","PROTOCOL MILESTONE",NA,NA,"2013-03-02",2013-03-02,1
"CDISCPILOT01","DS","01-703-1042",2,"Protocol Completed","COMPLETED","DISPOSITION EVENT",NA,NA,"2013-08-31",2013-08-31,183
"CDISCPILOT01","DS","01-703-1042",3,NA,"FINAL LAB VISIT",NA,NA,NA,"2013-08-31",2013-08-31,183
"CDISCPILOT01","DS","01-703-1076",1,"Randomized","RANDOMIZED","PROTOCOL MILESTONE",NA,NA,"2013-10-25",2013-10-25,1
"CDISCPILOT01","DS","01-703-1076",2,"Adverse Event","ADVERSE EVENT","DISPOSITION EVENT",NA,NA,"2013-12-24",2013-12-24,61
"CDISCPILOT01","DS","01-703-1076",3,NA,"FINAL LAB VISIT",NA,NA,NA,"2013-12-24",2013-12-24,61
"CDISCPILOT01","DS","01-703-1086",1,"Randomized","RANDOMIZED","PROTOCOL MILESTONE",NA,NA,"2012-09-02",2012-09-02,1
"CDISCPILOT01","DS","01-703-1086",2,"Adverse Event","ADVERSE EVENT","DISPOSITION EVENT",NA,NA,"2012-12-24",2012-12-24,114
"CDISCPILOT01","DS","01-703-1086",3,NA,"FINAL LAB VISIT",NA,NA,NA,"2012-12-24",2012-12-24,114
"CDISCPILOT01","DS","01-703-1086",4,NA,"FINAL RETRIEVAL VISIT",NA,NA,NA,"2013-03-26",2013-03-26,206
"CDISCPILOT01","DS","01-703-1096",1,"Randomized","RANDOMIZED","PROTOCOL MILESTONE",NA,NA,"2013-01-25",2013-01-25,1
"CDISCPILOT01","DS","01-703-1096",2,NA,"FINAL LAB VISIT",NA,NA,NA,"2013-02-23",2013-02-23,30
"CDISCPILOT01","DS","01-703-1096",3,"Unable to Contact Patient (Lost to Follow-Up)","LOST TO FOLLOW-UP","DISPOSITION EVENT",NA,NA,"2013-03-29",2013-03-29,64
"CDISCPILOT01","DS","01-703-1100",1,"Randomized","RANDOMIZED","PROTOCOL MILESTONE",NA,NA,"2013-03-13",2013-03-13,1
"CDISCPILOT01","DS","01-703-1100",2,"Protocol Completed","COMPLETED","DISPOSITION EVENT",NA,NA,"2013-09-14",2013-09-14,186
"CDISCPILOT01","DS","01-703-1100",3,NA,"FINAL LAB VISIT",NA,NA,NA,"2013-09-14",2013-09-14,186
"CDISCPILOT01","DS","01-703-1119",1,"Randomized","RANDOMIZED","PROTOCOL MILESTONE",NA,NA,"2013-02-20",2013-02-20,1
"CDISCPILOT01","DS","01-703-1119",2,"Adverse Event","ADVERSE EVENT","DISPOSITION EVENT",NA,NA,"2013-06-13",2013-06-13,114
"CDISCPILOT01","DS","01-703-1119",3,NA,"FINAL LAB VISIT",NA,NA,NA,"2013-06-13",2013-06-13,114
"CDISCPILOT01","DS","01-703-1119",4,NA,"FINAL RETRIEVAL VISIT",NA,NA,NA,"2013-08-24",2013-08-24,186
"CDISCPILOT01","DS","01-703-1175",1,"Randomized","RANDOMIZED","PROTOCOL MILESTONE",NA,NA,"2013-12-20",2013-12-20,1
"CDISCPILOT01","DS","01-703-1175",2,NA,"FINAL LAB VISIT",NA,NA,NA,"2013-12-31",2013-12-31,12
"CDISCPILOT01","DS","01-703-1175",3,"Protocol Entry Criteria not Met","PROTOCOL VIOLATION","DISPOSITION EVENT",NA,NA,"2013-12-31",2013-12-31,12
"CDISCPILOT01","DS","01-703-1182",1,"Randomized","RANDOMIZED","PROTOCOL MILESTONE",NA,NA,"2013-10-17",2013-10-17,1
"CDISCPILOT01","DS","01-703-1182",2,"Adverse Event","ADVERSE EVENT","DISPOSITION EVENT",NA,NA,"2013-12-12",2013-12-12,57
"CDISCPILOT01","DS","01-703-1182",3,NA,"FINAL LAB VISIT",NA,NA,NA,"2013-12-12",2013-12-12,57
"CDISCPILOT01","DS","01-703-1197",1,NA,"FINAL LAB VISIT",NA,NA,NA,"2013-06-01",2013-06-01,-15
"CDISCPILOT01","DS","01-703-1197",2,"Randomized","RANDOMIZED","PROTOCOL MILESTONE",NA,NA,"2013-06-16",2013-06-16,1
"CDISCPILOT01","DS","01-703-1197",3,"Caregiver Decision:  See Comment Page","WITHDRAWAL BY SUBJECT","DISPOSITION EVENT",NA,NA,"2013-07-22",2013-07-22,37
"CDISCPILOT01","DS","01-703-1210",1,"Randomized","RANDOMIZED","PROTOCOL MILESTONE",NA,NA,"2013-03-16",2013-03-16,1
"CDISCPILOT01","DS","01-703-1210",2,"Protocol Completed","COMPLETED","DISPOSITION EVENT",NA,NA,"2013-09-06",2013-09-06,175
"CDISCPILOT01","DS","01-703-1210",3,NA,"FINAL LAB VISIT",NA,NA,NA,"2013-09-06",2013-09-06,175
"CDISCPILOT01","DS","01-703-1258",1,"Randomized","RANDOMIZED","PROTOCOL MILESTONE",NA,NA,"2012-07-20",2012-07-20,1
"CDISCPILOT01","DS","01-703-1258",2,NA,"FINAL LAB VISIT",NA,NA,NA,"2012-12-31",2012-12-31,165
"CDISCPILOT01","DS","01-703-1258",3,"Adverse Event","ADVERSE EVENT","DISPOSITION EVENT",NA,NA,"2013-01-21",2013-01-21,186
"CDISCPILOT01","DS","01-703-1279",1,NA,"FINAL LAB VISIT",NA,NA,NA,"2013-04-27",2013-04-27,-16
"CDISCPILOT01","DS","01-703-1279",2,"Randomized","RANDOMIZED","PROTOCOL MILESTONE",NA,NA,"2013-05-13",2013-05-13,1
"CDISCPILOT01","DS","01-703-1279",3,"Caregiver Became Ill","WITHDRAWAL BY SUBJECT","DISPOSITION EVENT",NA,NA,"2013-06-22",2013-06-22,41
"CDISCPILOT01","DS","01-703-1295",1,"Randomized","RANDOMIZED","PROTOCOL MILESTONE",NA,NA,"2013-11-21",2013-11-21,1
"CDISCPILOT01","DS","01-703-1295",2,NA,"FINAL LAB VISIT",NA,NA,NA,"2014-05-19",2014-05-19,180
"CDISCPILOT01","DS","01-703-1295",3,"Family Wishes to Discontinue","WITHDRAWAL BY SUBJECT","DISPOSITION EVENT",NA,NA,"2014-05-19",2014-05-19,180
"CDISCPILOT01","DS","01-703-1299",1,"Randomized","RANDOMIZED","PROTOCOL MILESTONE",NA,NA,"2012-09-12",2012-09-12,1
"CDISCPILOT01","DS","01-703-1299",2,"Protocol Completed","COMPLETED","DISPOSITION EVENT",NA,NA,"2013-03-13",2013-03-13,183
"CDISCPILOT01","DS","01-703-1299",3,NA,"FINAL LAB VISIT",NA,NA,NA,"2013-03-13",2013-03-13,183
"CDISCPILOT01","DS","01-703-1335",1,"Randomized","RANDOMIZED","PROTOCOL MILESTONE",NA,NA,"2014-03-17",2014-03-17,1
"CDISCPILOT01","DS","01-703-1335",2,NA,"FINAL LAB VISIT",NA,NA,NA,"2014-05-24",2014-05-24,69
"CDISCPILOT01","DS","01-703-1335",3,"Protocol Violation","PROTOCOL VIOLATION","DISPOSITION EVENT",NA,NA,"2014-05-24",2014-05-24,69
"CDISCPILOT01","DS","01-703-1379",1,"Randomized","RANDOMIZED","PROTOCOL MILESTONE",NA,NA,"2013-09-22",2013-09-22,1
"CDISCPILOT01","DS","01-703-1379",2,"Protocol Completed","COMPLETED","DISPOSITION EVENT",NA,NA,"2014-03-21",2014-03-21,181
"CDISCPILOT01","DS","01-703-1379",3,NA,"FINAL LAB VISIT",NA,NA,NA,"2014-03-21",2014-03-21,181
"CDISCPILOT01","DS","01-703-1396",1,"Screen Failure","SCREEN FAILURE","DISPOSITION EVENT",NA,NA,"2014-02-09",2014-02-09,NA
"CDISCPILOT01","DS","01-703-1403",1,"Randomized","RANDOMIZED","PROTOCOL MILESTONE",NA,NA,"2012-12-12",2012-12-12,1
"CDISCPILOT01","DS","01-703-1403",2,"Adverse Event","ADVERSE EVENT","DISPOSITION EVENT",NA,NA,"2012-12-19",2012-12-19,8
"CDISCPILOT01","DS","01-703-1403",3,NA,"FINAL LAB VISIT",NA,NA,NA,"2012-12-19",2012-12-19,8
"CDISCPILOT01","DS","01-703-1439",1,"Randomized","RANDOMIZED","PROTOCOL MILESTONE",NA,NA,"2014-03-12",2014-03-12,1
"CDISCPILOT01","DS","01-703-1439",2,"Protocol Completed","COMPLETED","DISPOSITION EVENT",NA,NA,"2014-09-11",2014-09-11,184
"CDISCPILOT01","DS","01-703-1439",3,NA,"FINAL LAB VISIT",NA,NA,NA,"2014-09-11",2014-09-11,184
"CDISCPILOT01","DS","01-704-1008",1,"Randomized","RANDOMIZED","PROTOCOL MILESTONE",NA,NA,"2013-01-13",2013-01-13,1
"CDISCPILOT01","DS","01-704-1008",2,"Adverse Event","ADVERSE EVENT","DISPOSITION EVENT",NA,NA,"2013-02-25",2013-02-25,44
"CDISCPILOT01","DS","01-704-1008",3,NA,"FINAL LAB VISIT",NA,NA,NA,"2013-02-25",2013-02-25,44
"CDISCPILOT01","DS","01-704-1009",1,"Randomized","RANDOMIZED","PROTOCOL MILESTONE",NA,NA,"2013-08-27",2013-08-27,1
"CDISCPILOT01","DS","01-704-1009",2,NA,"FINAL LAB VISIT",NA,NA,NA,"2013-09-14",2013-09-14,19
"CDISCPILOT01","DS","01-704-1009",3,"Too Time Consuming;pt Refused Future Holters","WITHDRAWAL BY SUBJECT","DISPOSITION EVENT",NA,NA,"2013-10-02",2013-10-02,37
"CDISCPILOT01","DS","01-704-1010",1,"Randomized","RANDOMIZED","PROTOCOL MILESTONE",NA,NA,"2014-02-21",2014-02-21,1
"CDISCPILOT01","DS","01-704-1010",2,NA,"FINAL LAB VISIT",NA,NA,NA,"2014-07-09",2014-07-09,139
"CDISCPILOT01","DS","01-704-1010",3,"Patient is Moving","WITHDRAWAL BY SUBJECT","DISPOSITION EVENT",NA,NA,"2014-07-09",2014-07-09,139
"CDISCPILOT01","DS","01-704-1017",1,"Randomized","RANDOMIZED","PROTOCOL MILESTONE",NA,NA,"2013-10-06",2013-10-06,1
"CDISCPILOT01","DS","01-704-1017",2,NA,"FINAL LAB VISIT",NA,NA,NA,"2013-11-01",2013-11-01,27
"CDISCPILOT01","DS","01-704-1017",3,"Adverse Event","ADVERSE EVENT","DISPOSITION EVENT",NA,NA,"2013-11-24",2013-11-24,50
"CDISCPILOT01","DS","01-704-1025",1,"Randomized","RANDOMIZED","PROTOCOL MILESTONE",NA,NA,"2013-09-27",2013-09-27,1
"CDISCPILOT01","DS","01-704-1025",2,"Adverse Event","ADVERSE EVENT","DISPOSITION EVENT",NA,NA,"2013-11-29",2013-11-29,64
"CDISCPILOT01","DS","01-704-1025",3,NA,"FINAL LAB VISIT",NA,NA,NA,"2013-11-29",2013-11-29,64
"CDISCPILOT01","DS","01-704-1065",1,"Randomized","RANDOMIZED","PROTOCOL MILESTONE",NA,NA,"2013-10-24",2013-10-24,1
"CDISCPILOT01","DS","01-704-1065",2,"Adverse Event","ADVERSE EVENT","DISPOSITION EVENT",NA,NA,"2013-12-24",2013-12-24,62
"CDISCPILOT01","DS","01-704-1065",3,NA,"FINAL LAB VISIT",NA,NA,NA,"2013-12-24",2013-12-24,62
"CDISCPILOT01","DS","01-704-1074",1,"Randomized","RANDOMIZED","PROTOCOL MILESTONE",NA,NA,"2014-01-22",2014-01-22,1
"CDISCPILOT01","DS","01-704-1074",2,"Adverse Event","ADVERSE EVENT","DISPOSITION EVENT",NA,NA,"2014-03-31",2014-03-31,69
"CDISCPILOT01","DS","01-704-1074",3,NA,"FINAL LAB VISIT",NA,NA,NA,"2014-03-31",2014-03-31,69
"CDISCPILOT01","DS","01-704-1093",1,"Randomized","RANDOMIZED","PROTOCOL MILESTONE",NA,NA,"2013-03-15",2013-03-15,1
"CDISCPILOT01","DS","01-704-1093",2,"Adverse Event","ADVERSE EVENT","DISPOSITION EVENT",NA,NA,"2013-06-20",2013-06-20,98
"CDISCPILOT01","DS","01-704-1093",3,NA,"FINAL LAB VISIT",NA,NA,NA,"2013-06-20",2013-06-20,98
"CDISCPILOT01","DS","01-704-1093",4,NA,"FINAL RETRIEVAL VISIT",NA,NA,NA,"2013-12-25",2013-12-25,286
"CDISCPILOT01","DS","01-704-1114",1,"Randomized","RANDOMIZED","PROTOCOL MILESTONE",NA,NA,"2013-01-23",2013-01-23,1
"CDISCPILOT01","DS","01-704-1114",2,NA,"FINAL LAB VISIT",NA,NA,NA,"2013-07-08",2013-07-08,167
"CDISCPILOT01","DS","01-704-1114",3,"Leaving Area for 5 Months","WITHDRAWAL BY SUBJECT","DISPOSITION EVENT",NA,NA,"2013-07-08",2013-07-08,167
"CDISCPILOT01","DS","01-704-1120",1,"Randomized","RANDOMIZED","PROTOCOL MILESTONE",NA,NA,"2013-12-02",2013-12-02,1
"CDISCPILOT01","DS","01-704-1120",2,"Adverse Event","ADVERSE EVENT","DISPOSITION EVENT",NA,NA,"2014-02-03",2014-02-03,64
"CDISCPILOT01","DS","01-704-1120",3,NA,"FINAL LAB VISIT",NA,NA,NA,"2014-02-03",2014-02-03,64
"CDISCPILOT01","DS","01-704-1127",1,"Randomized","RANDOMIZED","PROTOCOL MILESTONE",NA,NA,"2013-10-02",2013-10-02,1
"CDISCPILOT01","DS","01-704-1127",2,"Protocol Completed","COMPLETED","DISPOSITION EVENT",NA,NA,"2014-03-31",2014-03-31,181
"CDISCPILOT01","DS","01-704-1127",3,NA,"FINAL LAB VISIT",NA,NA,NA,"2014-03-31",2014-03-31,181
"CDISCPILOT01","DS","01-704-1135",1,"Randomized","RANDOMIZED","PROTOCOL MILESTONE",NA,NA,"2013-10-31",2013-10-31,1
"CDISCPILOT01","DS","01-704-1135",2,"Protocol Completed","COMPLETED","DISPOSITION EVENT",NA,NA,"2014-05-16",2014-05-16,198
"CDISCPILOT01","DS","01-704-1135",3,NA,"FINAL LAB VISIT",NA,NA,NA,"2014-05-16",2014-05-16,198
"CDISCPILOT01","DS","01-704-1164",1,"Randomized","RANDOMIZED","PROTOCOL MILESTONE",NA,NA,"2012-09-19",2012-09-19,1
"CDISCPILOT01","DS","01-704-1164",2,"Protocol Completed","COMPLETED","DISPOSITION EVENT",NA,NA,"2013-04-04",2013-04-04,198
"CDISCPILOT01","DS","01-704-1164",3,NA,"FINAL LAB VISIT",NA,NA,NA,"2013-04-04",2013-04-04,198
"CDISCPILOT01","DS","01-704-1218",1,"Randomized","RANDOMIZED","PROTOCOL MILESTONE",NA,NA,"2012-11-19",2012-11-19,1
"CDISCPILOT01","DS","01-704-1218",2,"Protocol Completed","COMPLETED","DISPOSITION EVENT",NA,NA,"2013-05-27",2013-05-27,190
"CDISCPILOT01","DS","01-704-1218",3,NA,"FINAL LAB VISIT",NA,NA,NA,"2013-05-27",2013-05-27,190
"CDISCPILOT01","DS","01-704-1233",1,"Randomized","RANDOMIZED","PROTOCOL MILESTONE",NA,NA,"2013-03-21",2013-03-21,1
"CDISCPILOT01","DS","01-704-1233",2,NA,"FINAL LAB VISIT",NA,NA,NA,"2013-07-11",2013-07-11,113
"CDISCPILOT01","DS","01-704-1233",3,"Withdrew Consent","WITHDRAWAL BY SUBJECT","DISPOSITION EVENT",NA,NA,"2013-07-14",2013-07-14,116
"CDISCPILOT01","DS","01-704-1241",1,"Randomized","RANDOMIZED","PROTOCOL MILESTONE",NA,NA,"2013-08-25",2013-08-25,1
"CDISCPILOT01","DS","01-704-1241",2,"Adverse Event","ADVERSE EVENT","DISPOSITION EVENT",NA,NA,"2013-10-31",2013-10-31,68
"CDISCPILOT01","DS","01-704-1241",3,NA,"FINAL LAB VISIT",NA,NA,NA,"2013-10-31",2013-10-31,68
"CDISCPILOT01","DS","01-704-1260",1,"Randomized","RANDOMIZED","PROTOCOL MILESTONE",NA,NA,"2012-08-30",2012-08-30,1
"CDISCPILOT01","DS","01-704-1260",2,NA,"FINAL LAB VISIT",NA,NA,NA,"2012-10-24",2012-10-24,56
"CDISCPILOT01","DS","01-704-1260",3,"Too many Visits","WITHDRAWAL BY SUBJECT","DISPOSITION EVENT",NA,NA,"2013-01-18",2013-01-18,142
"CDISCPILOT01","DS","01-704-1266",1,"Randomized","RANDOMIZED","PROTOCOL MILESTONE",NA,NA,"2013-10-13",2013-10-13,1
"CDISCPILOT01","DS","01-704-1266",2,"Adverse Event","ADVERSE EVENT","DISPOSITION EVENT",NA,NA,"2013-12-06",2013-12-06,55
"CDISCPILOT01","DS","01-704-1266",3,NA,"FINAL LAB VISIT",NA,NA,NA,"2013-12-06",2013-12-06,55
"CDISCPILOT01","DS","01-704-1323",1,"Randomized","RANDOMIZED","PROTOCOL MILESTONE",NA,NA,"2013-07-08",2013-07-08,1
"CDISCPILOT01","DS","01-704-1323",2,NA,"FINAL LAB VISIT",NA,NA,NA,"2013-08-04",2013-08-04,28
"CDISCPILOT01","DS","01-704-1323",3,"Adverse Event","ADVERSE EVENT","DISPOSITION EVENT",NA,NA,"2013-08-08",2013-08-08,32
"CDISCPILOT01","DS","01-704-1325",1,"Randomized","RANDOMIZED","PROTOCOL MILESTONE",NA,NA,"2014-04-23",2014-04-23,1
"CDISCPILOT01","DS","01-704-1325",2,NA,"FINAL LAB VISIT",NA,NA,NA,"2014-08-06",2014-08-06,106
"CDISCPILOT01","DS","01-704-1325",3,"Protocol Violation","PROTOCOL VIOLATION","DISPOSITION EVENT",NA,NA,"2014-08-06",2014-08-06,106
"CDISCPILOT01","DS","01-704-1332",1,"Randomized","RANDOMIZED","PROTOCOL MILESTONE",NA,NA,"2013-12-09",2013-12-09,1
"CDISCPILOT01","DS","01-704-1332",2,"Adverse Event","ADVERSE EVENT","DISPOSITION EVENT",NA,NA,"2014-02-16",2014-02-16,70
"CDISCPILOT01","DS","01-704-1332",3,NA,"FINAL LAB VISIT",NA,NA,NA,"2014-02-16",2014-02-16,70
"CDISCPILOT01","DS","01-704-1351",1,"Randomized","RANDOMIZED","PROTOCOL MILESTONE",NA,NA,"2013-10-12",2013-10-12,1
"CDISCPILOT01","DS","01-704-1351",2,"Protocol Completed","COMPLETED","DISPOSITION EVENT",NA,NA,"2014-04-18",2014-04-18,189
"CDISCPILOT01","DS","01-704-1351",3,NA,"FINAL LAB VISIT",NA,NA,NA,"2014-04-18",2014-04-18,189
"CDISCPILOT01","DS","01-704-1388",1,"Randomized","RANDOMIZED","PROTOCOL MILESTONE",NA,NA,"2012-12-07",2012-12-07,1
"CDISCPILOT01","DS","01-704-1388",2,"Protocol Completed","COMPLETED","DISPOSITION EVENT",NA,NA,"2013-06-19",2013-06-19,195
"CDISCPILOT01","DS","01-704-1388",3,NA,"FINAL LAB VISIT",NA,NA,NA,"2013-06-19",2013-06-19,195
"CDISCPILOT01","DS","01-704-1435",1,"Randomized","RANDOMIZED","PROTOCOL MILESTONE",NA,NA,"2012-11-17",2012-11-17,1
"CDISCPILOT01","DS","01-704-1435",2,NA,"FINAL LAB VISIT",NA,NA,NA,"2013-01-12",2013-01-12,57
"CDISCPILOT01","DS","01-704-1435",3,"Withdrew Consent","WITHDRAWAL BY SUBJECT","DISPOSITION EVENT",NA,NA,"2013-01-12",2013-01-12,57
"CDISCPILOT01","DS","01-704-1445",1,"Randomized","RANDOMIZED","PROTOCOL MILESTONE",NA,NA,"2014-05-11",2014-05-11,1
"CDISCPILOT01","DS","01-704-1445",2,NA,"FINAL LAB VISIT",NA,NA,NA,"2014-10-01",2014-10-01,144
"CDISCPILOT01","DS","01-704-1445",3,"Death","DEATH","DISPOSITION EVENT",NA,NA,"2014-11-01",2014-11-01,175
"CDISCPILOT01","DS","01-705-1011",1,"Screen Failure","SCREEN FAILURE","DISPOSITION EVENT",NA,NA,"2013-09-01",2013-09-01,NA
"CDISCPILOT01","DS","01-705-1018",1,NA,"FINAL LAB VISIT",NA,NA,NA,"2013-06-30",2013-06-30,-5
"CDISCPILOT01","DS","01-705-1018",2,"Randomized","RANDOMIZED","PROTOCOL MILESTONE",NA,NA,"2013-07-05",2013-07-05,1
"CDISCPILOT01","DS","01-705-1018",3,"Patient Withdrew Consent","WITHDRAWAL BY SUBJECT","DISPOSITION EVENT",NA,NA,"2013-07-12",2013-07-12,8
"CDISCPILOT01","DS","01-705-1031",1,"Randomized","RANDOMIZED","PROTOCOL MILESTONE",NA,NA,"2013-11-27",2013-11-27,1
"CDISCPILOT01","DS","01-705-1031",2,NA,"FINAL LAB VISIT",NA,NA,NA,"2014-05-11",2014-05-11,166
"CDISCPILOT01","DS","01-705-1031",3,"Unable to Contact Patient (Lost to Follow-Up)","LOST TO FOLLOW-UP","DISPOSITION EVENT",NA,NA,"2014-05-11",2014-05-11,166
"CDISCPILOT01","DS","01-705-1058",1,"Screen Failure","SCREEN FAILURE","DISPOSITION EVENT",NA,NA,"2013-12-02",2013-12-02,NA
"CDISCPILOT01","DS","01-705-1059",1,"Randomized","RANDOMIZED","PROTOCOL MILESTONE",NA,NA,"2013-08-05",2013-08-05,1
"CDISCPILOT01","DS","01-705-1059",2,"Adverse Event","ADVERSE EVENT","DISPOSITION EVENT",NA,NA,"2013-12-05",2013-12-05,123
"CDISCPILOT01","DS","01-705-1059",3,NA,"FINAL LAB VISIT",NA,NA,NA,"2013-12-05",2013-12-05,123
"CDISCPILOT01","DS","01-705-1059",4,NA,"FINAL RETRIEVAL VISIT",NA,NA,NA,"2014-02-06",2014-02-06,186
"CDISCPILOT01","DS","01-705-1112",1,"Screen Failure","SCREEN FAILURE","DISPOSITION EVENT",NA,NA,"2014-02-23",2014-02-23,NA
"CDISCPILOT01","DS","01-705-1186",1,"Randomized","RANDOMIZED","PROTOCOL MILESTONE",NA,NA,"2014-01-08",2014-01-08,1
"CDISCPILOT01","DS","01-705-1186",2,NA,"FINAL LAB VISIT",NA,NA,NA,"2014-02-07",2014-02-07,31
"CDISCPILOT01","DS","01-705-1186",3,"Hyperbilirubinemia","PHYSICIAN DECISION","DISPOSITION EVENT",NA,NA,"2014-02-07",2014-02-07,31
"CDISCPILOT01","DS","01-705-1199",1,"Randomized","RANDOMIZED","PROTOCOL MILESTONE",NA,NA,"2013-09-16",2013-09-16,1
"CDISCPILOT01","DS","01-705-1199",2,"Adverse Event","ADVERSE EVENT","DISPOSITION EVENT",NA,NA,"2013-09-29",2013-09-29,14
"CDISCPILOT01","DS","01-705-1199",3,NA,"FINAL LAB VISIT",NA,NA,NA,"2013-09-29",2013-09-29,14
"CDISCPILOT01","DS","01-705-1243",1,"Screen Failure","SCREEN FAILURE","DISPOSITION EVENT",NA,NA,"2013-02-26",2013-02-26,NA
"CDISCPILOT01","DS","01-705-1280",1,"Randomized","RANDOMIZED","PROTOCOL MILESTONE",NA,NA,"2014-01-17",2014-01-17,1
"CDISCPILOT01","DS","01-705-1280",2,NA,"FINAL LAB VISIT",NA,NA,NA,"2014-07-24",2014-07-24,189
"CDISCPILOT01","DS","01-705-1280",3,"Protocol Completed","COMPLETED","DISPOSITION EVENT",NA,NA,"2014-07-25",2014-07-25,190
"CDISCPILOT01","DS","01-705-1281",1,"Randomized","RANDOMIZED","PROTOCOL MILESTONE",NA,NA,"2013-11-28",2013-11-28,1
"CDISCPILOT01","DS","01-705-1281",2,"Adverse Event","ADVERSE EVENT","DISPOSITION EVENT",NA,NA,"2014-03-17",2014-03-17,110
"CDISCPILOT01","DS","01-705-1281",3,NA,"FINAL LAB VISIT",NA,NA,NA,"2014-03-17",2014-03-17,110
"CDISCPILOT01","DS","01-705-1282",1,"Randomized","RANDOMIZED","PROTOCOL MILESTONE",NA,NA,"2012-12-26",2012-12-26,1
"CDISCPILOT01","DS","01-705-1282",2,"Protocol Completed","COMPLETED","DISPOSITION EVENT",NA,NA,"2013-06-24",2013-06-24,181
"CDISCPILOT01","DS","01-705-1282",3,NA,"FINAL LAB VISIT",NA,NA,NA,"2013-06-24",2013-06-24,181
"CDISCPILOT01","DS","01-705-1292",1,"Randomized","RANDOMIZED","PROTOCOL MILESTONE",NA,NA,"2013-10-14",2013-10-14,1
"CDISCPILOT01","DS","01-705-1292",2,"Protocol Completed","COMPLETED","DISPOSITION EVENT",NA,NA,"2014-05-14",2014-05-14,213
"CDISCPILOT01","DS","01-705-1292",3,NA,"FINAL LAB VISIT",NA,NA,NA,"2014-05-14",2014-05-14,213
"CDISCPILOT01","DS","01-705-1303",1,"Randomized","RANDOMIZED","PROTOCOL MILESTONE",NA,NA,"2013-12-16",2013-12-16,1
"CDISCPILOT01","DS","01-705-1303",2,NA,"FINAL LAB VISIT",NA,NA,NA,"2014-04-07",2014-04-07,113
"CDISCPILOT01","DS","01-705-1303",3,"Adverse Event","ADVERSE EVENT","DISPOSITION EVENT",NA,NA,"2014-06-02",2014-06-02,169
"CDISCPILOT01","DS","01-705-1310",1,"Randomized","RANDOMIZED","PROTOCOL MILESTONE",NA,NA,"2013-11-02",2013-11-02,1
"CDISCPILOT01","DS","01-705-1310",2,"Adverse Event","ADVERSE EVENT","DISPOSITION EVENT",NA,NA,"2014-01-23",2014-01-23,83
"CDISCPILOT01","DS","01-705-1310",3,NA,"FINAL LAB VISIT",NA,NA,NA,"2014-01-23",2014-01-23,83
"CDISCPILOT01","DS","01-705-1349",1,"Randomized","RANDOMIZED","PROTOCOL MILESTONE",NA,NA,"2013-03-10",2013-03-10,1
"CDISCPILOT01","DS","01-705-1349",2,"Protocol Completed","COMPLETED","DISPOSITION EVENT",NA,NA,"2013-09-08",2013-09-08,183
"CDISCPILOT01","DS","01-705-1349",3,NA,"FINAL LAB VISIT",NA,NA,NA,"2013-09-08",2013-09-08,183
"CDISCPILOT01","DS","01-705-1377",1,"Randomized","RANDOMIZED","PROTOCOL MILESTONE",NA,NA,"2014-01-04",2014-01-04,1
"CDISCPILOT01","DS","01-705-1377",2,NA,"FINAL LAB VISIT",NA,NA,NA,"2014-02-07",2014-02-07,35
"CDISCPILOT01","DS","01-705-1377",3,"Patient Withdrew Consent","WITHDRAWAL BY SUBJECT","DISPOSITION EVENT",NA,NA,"2014-03-07",2014-03-07,63
"CDISCPILOT01","DS","01-705-1382",1,NA,"FINAL LAB VISIT",NA,NA,NA,"2013-05-09",2013-05-09,-4
"CDISCPILOT01","DS","01-705-1382",2,"Protocol Entry Criteria not Met","PROTOCOL VIOLATION","DISPOSITION EVENT",NA,NA,"2013-05-13",2013-05-13,1
"CDISCPILOT01","DS","01-705-1382",3,"Randomized","RANDOMIZED","PROTOCOL MILESTONE",NA,NA,"2013-05-13",2013-05-13,1
"CDISCPILOT01","DS","01-705-1393",1,"Randomized","RANDOMIZED","PROTOCOL MILESTONE",NA,NA,"2012-09-07",2012-09-07,1
"CDISCPILOT01","DS","01-705-1393",2,"Adverse Event","ADVERSE EVENT","DISPOSITION EVENT",NA,NA,"2013-02-20",2013-02-20,167
"CDISCPILOT01","DS","01-705-1393",3,NA,"FINAL LAB VISIT",NA,NA,NA,"2013-02-20",2013-02-20,167
"CDISCPILOT01","DS","01-705-1421",1,"Screen Failure","SCREEN FAILURE","DISPOSITION EVENT",NA,NA,"2013-01-14",2013-01-14,NA
"CDISCPILOT01","DS","01-705-1431",1,"Randomized","RANDOMIZED","PROTOCOL MILESTONE",NA,NA,"2013-06-23",2013-06-23,1
"CDISCPILOT01","DS","01-705-1431",2,"Protocol Completed","COMPLETED","DISPOSITION EVENT",NA,NA,"2013-12-19",2013-12-19,180
"CDISCPILOT01","DS","01-705-1431",3,NA,"FINAL LAB VISIT",NA,NA,NA,"2013-12-19",2013-12-19,180
"CDISCPILOT01","DS","01-706-1041",1,"Randomized","RANDOMIZED","PROTOCOL MILESTONE",NA,NA,"2013-12-31",2013-12-31,1
"CDISCPILOT01","DS","01-706-1041",2,"Protocol Completed","COMPLETED","DISPOSITION EVENT",NA,NA,"2014-07-29",2014-07-29,211
"CDISCPILOT01","DS","01-706-1041",3,NA,"FINAL LAB VISIT",NA,NA,NA,"2014-07-29",2014-07-29,211
"CDISCPILOT01","DS","01-706-1049",1,"Randomized","RANDOMIZED","PROTOCOL MILESTONE",NA,NA,"2013-05-14",2013-05-14,1
"CDISCPILOT01","DS","01-706-1049",2,"Adverse Event","ADVERSE EVENT","DISPOSITION EVENT",NA,NA,"2013-06-25",2013-06-25,43
"CDISCPILOT01","DS","01-706-1049",3,NA,"FINAL LAB VISIT",NA,NA,NA,"2013-06-25",2013-06-25,43
"CDISCPILOT01","DS","01-706-1049",4,NA,"FINAL RETRIEVAL VISIT",NA,NA,NA,"2013-11-26",2013-11-26,197
"CDISCPILOT01","DS","01-706-1384",1,"Randomized","RANDOMIZED","PROTOCOL MILESTONE",NA,NA,"2012-09-15",2012-09-15,1
"CDISCPILOT01","DS","01-706-1384",2,"Adverse Event","ADVERSE EVENT","DISPOSITION EVENT",NA,NA,"2012-09-29",2012-09-29,15
"CDISCPILOT01","DS","01-706-1384",3,NA,"FINAL LAB VISIT",NA,NA,NA,"2012-09-29",2012-09-29,15
"CDISCPILOT01","DS","01-706-1384",4,NA,"FINAL RETRIEVAL VISIT",NA,NA,NA,"2013-06-22",2013-06-22,281
"CDISCPILOT01","DS","01-707-1037",1,"Randomized","RANDOMIZED","PROTOCOL MILESTONE",NA,NA,"2013-12-20",2013-12-20,1
"CDISCPILOT01","DS","01-707-1037",2,NA,"FINAL LAB VISIT",NA,NA,NA,"2014-01-08",2014-01-08,20
"CDISCPILOT01","DS","01-707-1037",3,"Withdraws Consent","WITHDRAWAL BY SUBJECT","DISPOSITION EVENT",NA,NA,"2014-01-08",2014-01-08,20
"CDISCPILOT01","DS","01-707-1206",1,"Randomized","RANDOMIZED","PROTOCOL MILESTONE",NA,NA,"2013-10-28",2013-10-28,1
"CDISCPILOT01","DS","01-707-1206",2,"Protocol Completed","COMPLETED","DISPOSITION EVENT",NA,NA,"2014-04-27",2014-04-27,182
"CDISCPILOT01","DS","01-707-1206",3,NA,"FINAL LAB VISIT",NA,NA,NA,"2014-04-27",2014-04-27,182
"CDISCPILOT01","DS","01-707-1276",1,"Screen Failure","SCREEN FAILURE","DISPOSITION EVENT",NA,NA,"2012-10-12",2012-10-12,NA
"CDISCPILOT01","DS","01-707-1430",1,"Screen Failure","SCREEN FAILURE","DISPOSITION EVENT",NA,NA,"2014-02-14",2014-02-14,NA
"CDISCPILOT01","DS","01-707-1434",1,"Screen Failure","SCREEN FAILURE","DISPOSITION EVENT",NA,NA,"2013-07-25",2013-07-25,NA
"CDISCPILOT01","DS","01-708-1013",1,"Screen Failure","SCREEN FAILURE","DISPOSITION EVENT",NA,NA,"2012-10-13",2012-10-13,NA
"CDISCPILOT01","DS","01-708-1019",1,"Randomized","RANDOMIZED","PROTOCOL MILESTONE",NA,NA,"2013-12-20",2013-12-20,1
"CDISCPILOT01","DS","01-708-1019",2,"Adverse Event","ADVERSE EVENT","DISPOSITION EVENT",NA,NA,"2014-01-23",2014-01-23,35
"CDISCPILOT01","DS","01-708-1019",3,NA,"FINAL LAB VISIT",NA,NA,NA,"2014-01-23",2014-01-23,35
"CDISCPILOT01","DS","01-708-1032",1,"Randomized","RANDOMIZED","PROTOCOL MILESTONE",NA,NA,"2013-02-09",2013-02-09,1
"CDISCPILOT01","DS","01-708-1032",2,"Adverse Event","ADVERSE EVENT","DISPOSITION EVENT",NA,NA,"2013-03-09",2013-03-09,29
"CDISCPILOT01","DS","01-708-1032",3,NA,"FINAL LAB VISIT",NA,NA,NA,"2013-03-09",2013-03-09,29
"CDISCPILOT01","DS","01-708-1054",1,"Screen Failure","SCREEN FAILURE","DISPOSITION EVENT",NA,NA,"2014-02-14",2014-02-14,NA
"CDISCPILOT01","DS","01-708-1067",1,"Screen Failure","SCREEN FAILURE","DISPOSITION EVENT",NA,NA,"2013-02-07",2013-02-07,NA
"CDISCPILOT01","DS","01-708-1084",1,"Randomized","RANDOMIZED","PROTOCOL MILESTONE",NA,NA,"2013-05-09",2013-05-09,1
"CDISCPILOT01","DS","01-708-1084",2,"Protocol Completed","COMPLETED","DISPOSITION EVENT",NA,NA,"2013-11-11",2013-11-11,187
"CDISCPILOT01","DS","01-708-1084",3,NA,"FINAL LAB VISIT",NA,NA,NA,"2013-11-11",2013-11-11,187
"CDISCPILOT01","DS","01-708-1087",1,"Randomized","RANDOMIZED","PROTOCOL MILESTONE",NA,NA,"2012-10-22",2012-10-22,1
"CDISCPILOT01","DS","01-708-1087",2,"Protocol Completed","COMPLETED","DISPOSITION EVENT",NA,NA,"2013-04-28",2013-04-28,189
"CDISCPILOT01","DS","01-708-1087",3,NA,"FINAL LAB VISIT",NA,NA,NA,"2013-04-28",2013-04-28,189
"CDISCPILOT01","DS","01-708-1104",1,"Screen Failure","SCREEN FAILURE","DISPOSITION EVENT",NA,NA,"2014-01-23",2014-01-23,NA
"CDISCPILOT01","DS","01-708-1158",1,"Randomized","RANDOMIZED","PROTOCOL MILESTONE",NA,NA,"2014-02-08",2014-02-08,1
"CDISCPILOT01","DS","01-708-1158",2,"Adverse Event","ADVERSE EVENT","DISPOSITION EVENT",NA,NA,"2014-03-22",2014-03-22,43
"CDISCPILOT01","DS","01-708-1158",3,NA,"FINAL LAB VISIT",NA,NA,NA,"2014-03-22",2014-03-22,43
"CDISCPILOT01","DS","01-708-1171",1,"Randomized","RANDOMIZED","PROTOCOL MILESTONE",NA,NA,"2012-12-06",2012-12-06,1
"CDISCPILOT01","DS","01-708-1171",2,NA,"FINAL LAB VISIT",NA,NA,NA,"2013-06-03",2013-06-03,180
"CDISCPILOT01","DS","01-708-1171",3,"Protocol Completed","COMPLETED","DISPOSITION EVENT",NA,NA,"2013-06-04",2013-06-04,181
"CDISCPILOT01","DS","01-708-1178",1,"Randomized","RANDOMIZED","PROTOCOL MILESTONE",NA,NA,"2013-12-29",2013-12-29,1
"CDISCPILOT01","DS","01-708-1178",2,NA,"FINAL LAB VISIT",NA,NA,NA,"2014-04-06",2014-04-06,99
"CDISCPILOT01","DS","01-708-1178",3,"Dr Put Pt on an Excluded Medication","PHYSICIAN DECISION","DISPOSITION EVENT",NA,NA,"2014-04-06",2014-04-06,99
"CDISCPILOT01","DS","01-708-1184",1,"Screen Failure","SCREEN FAILURE","DISPOSITION EVENT",NA,NA,"2013-01-14",2013-01-14,NA
"CDISCPILOT01","DS","01-708-1213",1,"Randomized","RANDOMIZED","PROTOCOL MILESTONE",NA,NA,"2013-02-09",2013-02-09,1
"CDISCPILOT01","DS","01-708-1213",2,NA,"FINAL LAB VISIT",NA,NA,NA,"2013-02-22",2013-02-22,14
"CDISCPILOT01","DS","01-708-1213",3,"Adverse Event","ADVERSE EVENT","DISPOSITION EVENT",NA,NA,"2013-02-26",2013-02-26,18
"CDISCPILOT01","DS","01-708-1216",1,"Randomized","RANDOMIZED","PROTOCOL MILESTONE",NA,NA,"2012-10-24",2012-10-24,1
"CDISCPILOT01","DS","01-708-1216",2,"Adverse Event","ADVERSE EVENT","DISPOSITION EVENT",NA,NA,"2012-12-06",2012-12-06,44
"CDISCPILOT01","DS","01-708-1216",3,NA,"FINAL LAB VISIT",NA,NA,NA,"2012-12-06",2012-12-06,44
"CDISCPILOT01","DS","01-708-1236",1,NA,"FINAL LAB VISIT",NA,NA,NA,"2013-09-19",2013-09-19,-2
"CDISCPILOT01","DS","01-708-1236",2,"Randomized","RANDOMIZED","PROTOCOL MILESTONE",NA,NA,"2013-09-21",2013-09-21,1
"CDISCPILOT01","DS","01-708-1236",3,"Patient Withdrew Consent","WITHDRAWAL BY SUBJECT","DISPOSITION EVENT",NA,NA,"2013-09-26",2013-09-26,6
"CDISCPILOT01","DS","01-708-1242",1,"Screen Failure","SCREEN FAILURE","DISPOSITION EVENT",NA,NA,"2012-08-13",2012-08-13,NA
"CDISCPILOT01","DS","01-708-1253",1,"Randomized","RANDOMIZED","PROTOCOL MILESTONE",NA,NA,"2013-05-07",2013-05-07,1
"CDISCPILOT01","DS","01-708-1253",2,NA,"FINAL LAB VISIT",NA,NA,NA,"2013-11-04",2013-11-04,182
"CDISCPILOT01","DS","01-708-1253",3,"Protocol Completed","COMPLETED","DISPOSITION EVENT",NA,NA,"2013-11-05",2013-11-05,183
"CDISCPILOT01","DS","01-708-1272",1,"Randomized","RANDOMIZED","PROTOCOL MILESTONE",NA,NA,"2013-02-06",2013-02-06,1
"CDISCPILOT01","DS","01-708-1272",2,NA,"FINAL LAB VISIT",NA,NA,NA,"2013-04-04",2013-04-04,58
"CDISCPILOT01","DS","01-708-1272",3,"Patch Discomfort","WITHDRAWAL BY SUBJECT","DISPOSITION EVENT",NA,NA,"2013-04-04",2013-04-04,58
"CDISCPILOT01","DS","01-708-1286",1,"Randomized","RANDOMIZED","PROTOCOL MILESTONE",NA,NA,"2013-09-10",2013-09-10,1
"CDISCPILOT01","DS","01-708-1286",2,"Protocol Completed","COMPLETED","DISPOSITION EVENT",NA,NA,"2014-03-08",2014-03-08,180
"CDISCPILOT01","DS","01-708-1286",3,NA,"FINAL LAB VISIT",NA,NA,NA,"2014-03-08",2014-03-08,180
"CDISCPILOT01","DS","01-708-1296",1,"Randomized","RANDOMIZED","PROTOCOL MILESTONE",NA,NA,"2013-06-14",2013-06-14,1
"CDISCPILOT01","DS","01-708-1296",2,"Protocol Completed","COMPLETED","DISPOSITION EVENT",NA,NA,"2013-12-12",2013-12-12,182
"CDISCPILOT01","DS","01-708-1296",3,NA,"FINAL LAB VISIT",NA,NA,NA,"2013-12-12",2013-12-12,182
"CDISCPILOT01","DS","01-708-1297",1,"Randomized","RANDOMIZED","PROTOCOL MILESTONE",NA,NA,"2013-01-25",2013-01-25,1
"CDISCPILOT01","DS","01-708-1297",2,"Adverse Event","ADVERSE EVENT","DISPOSITION EVENT",NA,NA,"2013-05-08",2013-05-08,104
"CDISCPILOT01","DS","01-708-1297",3,NA,"FINAL LAB VISIT",NA,NA,NA,"2013-05-08",2013-05-08,104
"CDISCPILOT01","DS","01-708-1316",1,"Randomized","RANDOMIZED","PROTOCOL MILESTONE",NA,NA,"2013-08-23",2013-08-23,1
"CDISCPILOT01","DS","01-708-1316",2,"Protocol Completed","COMPLETED","DISPOSITION EVENT",NA,NA,"2014-03-01",2014-03-01,191
"CDISCPILOT01","DS","01-708-1316",3,NA,"FINAL LAB VISIT",NA,NA,NA,"2014-03-01",2014-03-01,191
"CDISCPILOT01","DS","01-708-1336",1,"Randomized","RANDOMIZED","PROTOCOL MILESTONE",NA,NA,"2012-12-07",2012-12-07,1
"CDISCPILOT01","DS","01-708-1336",2,"Protocol Completed","COMPLETED","DISPOSITION EVENT",NA,NA,"2013-06-05",2013-06-05,181
"CDISCPILOT01","DS","01-708-1336",3,NA,"FINAL LAB VISIT",NA,NA,NA,"2013-06-05",2013-06-05,181
"CDISCPILOT01","DS","01-708-1342",1,"Randomized","RANDOMIZED","PROTOCOL MILESTONE",NA,NA,"2012-12-29",2012-12-29,1
"CDISCPILOT01","DS","01-708-1342",2,"Protocol Completed","COMPLETED","DISPOSITION EVENT",NA,NA,"2013-06-28",2013-06-28,182
"CDISCPILOT01","DS","01-708-1342",3,NA,"FINAL LAB VISIT",NA,NA,NA,"2013-06-28",2013-06-28,182
"CDISCPILOT01","DS","01-708-1347",1,"Randomized","RANDOMIZED","PROTOCOL MILESTONE",NA,NA,"2013-04-20",2013-04-20,1
"CDISCPILOT01","DS","01-708-1347",2,"Adverse Event","ADVERSE EVENT","DISPOSITION EVENT",NA,NA,"2013-06-18",2013-06-18,60
"CDISCPILOT01","DS","01-708-1347",3,NA,"FINAL LAB VISIT",NA,NA,NA,"2013-06-18",2013-06-18,60
"CDISCPILOT01","DS","01-708-1348",1,"Randomized","RANDOMIZED","PROTOCOL MILESTONE",NA,NA,"2013-08-05",2013-08-05,1
"CDISCPILOT01","DS","01-708-1348",2,"Protocol Completed","COMPLETED","DISPOSITION EVENT",NA,NA,"2014-02-13",2014-02-13,193
"CDISCPILOT01","DS","01-708-1348",3,NA,"FINAL LAB VISIT",NA,NA,NA,"2014-02-13",2014-02-13,193
"CDISCPILOT01","DS","01-708-1352",1,"Screen Failure","SCREEN FAILURE","DISPOSITION EVENT",NA,NA,"2013-09-16",2013-09-16,NA
"CDISCPILOT01","DS","01-708-1353",1,"Randomized","RANDOMIZED","PROTOCOL MILESTONE",NA,NA,"2013-07-04",2013-07-04,1
"CDISCPILOT01","DS","01-708-1353",2,"Adverse Event","ADVERSE EVENT","DISPOSITION EVENT",NA,NA,"2013-09-10",2013-09-10,69
"CDISCPILOT01","DS","01-708-1353",3,NA,"FINAL LAB VISIT",NA,NA,NA,"2013-09-10",2013-09-10,69
"CDISCPILOT01","DS","01-708-1372",1,NA,"FINAL LAB VISIT",NA,NA,NA,"2013-04-03",2013-04-03,-9
"CDISCPILOT01","DS","01-708-1372",2,"Randomized","RANDOMIZED","PROTOCOL MILESTONE",NA,NA,"2013-04-12",2013-04-12,1
"CDISCPILOT01","DS","01-708-1372",3,"Protocol Entry Criteria not Met","PROTOCOL VIOLATION","DISPOSITION EVENT",NA,NA,"2013-05-10",2013-05-10,29
"CDISCPILOT01","DS","01-708-1378",1,"Randomized","RANDOMIZED","PROTOCOL MILESTONE",NA,NA,"2013-09-03",2013-09-03,1
"CDISCPILOT01","DS","01-708-1378",2,NA,"FINAL LAB VISIT",NA,NA,NA,"2014-01-28",2014-01-28,148
"CDISCPILOT01","DS","01-708-1378",3,"Sponsor Decision (Study or Patient Discontinued by the Sponsor)","STUDY TERMINATED BY SPONSOR","DISPOSITION EVENT",NA,NA,"2014-01-28",2014-01-28,148
"CDISCPILOT01","DS","01-708-1406",1,"Randomized","RANDOMIZED","PROTOCOL MILESTONE",NA,NA,"2013-12-26",2013-12-26,1
"CDISCPILOT01","DS","01-708-1406",2,"Protocol Completed","COMPLETED","DISPOSITION EVENT",NA,NA,"2014-07-02",2014-07-02,189
"CDISCPILOT01","DS","01-708-1406",3,NA,"FINAL LAB VISIT",NA,NA,NA,"2014-07-02",2014-07-02,189
"CDISCPILOT01","DS","01-708-1428",1,"Randomized","RANDOMIZED","PROTOCOL MILESTONE",NA,NA,"2013-11-09",2013-11-09,1
"CDISCPILOT01","DS","01-708-1428",2,"Adverse Event","ADVERSE EVENT","DISPOSITION EVENT",NA,NA,"2014-01-31",2014-01-31,84
"CDISCPILOT01","DS","01-708-1428",3,NA,"FINAL LAB VISIT",NA,NA,NA,"2014-01-31",2014-01-31,84
"CDISCPILOT01","DS","01-709-1001",1,"Randomized","RANDOMIZED","PROTOCOL MILESTONE",NA,NA,"2013-10-08",2013-10-08,1
"CDISCPILOT01","DS","01-709-1001",2,NA,"FINAL LAB VISIT",NA,NA,NA,"2014-03-17",2014-03-17,161
"CDISCPILOT01","DS","01-709-1001",3,"Protocol Completed","COMPLETED","DISPOSITION EVENT",NA,NA,"2014-04-08",2014-04-08,183
"CDISCPILOT01","DS","01-709-1007",1,"Randomized","RANDOMIZED","PROTOCOL MILESTONE",NA,NA,"2012-07-31",2012-07-31,1
"CDISCPILOT01","DS","01-709-1007",2,"Adverse Event","ADVERSE EVENT","DISPOSITION EVENT",NA,NA,"2012-09-01",2012-09-01,33
"CDISCPILOT01","DS","01-709-1007",3,NA,"FINAL LAB VISIT",NA,NA,NA,"2012-09-01",2012-09-01,33
"CDISCPILOT01","DS","01-709-1020",1,"Randomized","RANDOMIZED","PROTOCOL MILESTONE",NA,NA,"2012-12-01",2012-12-01,1
"CDISCPILOT01","DS","01-709-1020",2,"Protocol Completed","COMPLETED","DISPOSITION EVENT",NA,NA,"2013-06-01",2013-06-01,183
"CDISCPILOT01","DS","01-709-1020",3,NA,"FINAL LAB VISIT",NA,NA,NA,"2013-06-01",2013-06-01,183
"CDISCPILOT01","DS","01-709-1029",1,"Randomized","RANDOMIZED","PROTOCOL MILESTONE",NA,NA,"2012-12-25",2012-12-25,1
"CDISCPILOT01","DS","01-709-1029",2,"Protocol Completed","COMPLETED","DISPOSITION EVENT",NA,NA,"2013-06-26",2013-06-26,184
"CDISCPILOT01","DS","01-709-1029",3,NA,"FINAL LAB VISIT",NA,NA,NA,"2013-06-26",2013-06-26,184
"CDISCPILOT01","DS","01-709-1081",1,"Randomized","RANDOMIZED","PROTOCOL MILESTONE",NA,NA,"2014-01-18",2014-01-18,1
"CDISCPILOT01","DS","01-709-1081",2,"Adverse Event","ADVERSE EVENT","DISPOSITION EVENT",NA,NA,"2014-05-10",2014-05-10,113
"CDISCPILOT01","DS","01-709-1081",3,NA,"FINAL LAB VISIT",NA,NA,NA,"2014-05-10",2014-05-10,113
"CDISCPILOT01","DS","01-709-1088",1,"Randomized","RANDOMIZED","PROTOCOL MILESTONE",NA,NA,"2014-04-12",2014-04-12,1
"CDISCPILOT01","DS","01-709-1088",2,"Protocol Completed","COMPLETED","DISPOSITION EVENT",NA,NA,"2014-10-09",2014-10-09,181
"CDISCPILOT01","DS","01-709-1088",3,NA,"FINAL LAB VISIT",NA,NA,NA,"2014-10-09",2014-10-09,181
"CDISCPILOT01","DS","01-709-1099",1,"Randomized","RANDOMIZED","PROTOCOL MILESTONE",NA,NA,"2013-10-25",2013-10-25,1
"CDISCPILOT01","DS","01-709-1099",2,"Protocol Completed","COMPLETED","DISPOSITION EVENT",NA,NA,"2014-04-25",2014-04-25,183
"CDISCPILOT01","DS","01-709-1099",3,NA,"FINAL LAB VISIT",NA,NA,NA,"2014-04-25",2014-04-25,183
"CDISCPILOT01","DS","01-709-1102",1,"Randomized","RANDOMIZED","PROTOCOL MILESTONE",NA,NA,"2013-01-15",2013-01-15,1
"CDISCPILOT01","DS","01-709-1102",2,"Adverse Event","ADVERSE EVENT","DISPOSITION EVENT",NA,NA,"2013-03-31",2013-03-31,76
"CDISCPILOT01","DS","01-709-1102",3,NA,"FINAL LAB VISIT",NA,NA,NA,"2013-03-31",2013-03-31,76
"CDISCPILOT01","DS","01-709-1168",1,"Randomized","RANDOMIZED","PROTOCOL MILESTONE",NA,NA,"2013-08-02",2013-08-02,1
"CDISCPILOT01","DS","01-709-1168",2,"Adverse Event","ADVERSE EVENT","DISPOSITION EVENT",NA,NA,"2013-09-27",2013-09-27,57
"CDISCPILOT01","DS","01-709-1168",3,NA,"FINAL LAB VISIT",NA,NA,NA,"2013-09-27",2013-09-27,57
"CDISCPILOT01","DS","01-709-1217",1,"Randomized","RANDOMIZED","PROTOCOL MILESTONE",NA,NA,"2013-03-04",2013-03-04,1
"CDISCPILOT01","DS","01-709-1217",2,"Adverse Event","ADVERSE EVENT","DISPOSITION EVENT",NA,NA,"2013-06-25",2013-06-25,114
"CDISCPILOT01","DS","01-709-1217",3,NA,"FINAL LAB VISIT",NA,NA,NA,"2013-06-25",2013-06-25,114
"CDISCPILOT01","DS","01-709-1224",1,"Screen Failure","SCREEN FAILURE","DISPOSITION EVENT",NA,NA,"2013-11-18",2013-11-18,NA
"CDISCPILOT01","DS","01-709-1237",1,"Screen Failure","SCREEN FAILURE","DISPOSITION EVENT",NA,NA,"2014-01-17",2014-01-17,NA
"CDISCPILOT01","DS","01-709-1238",1,"Randomized","RANDOMIZED","PROTOCOL MILESTONE",NA,NA,"2013-05-15",2013-05-15,1
"CDISCPILOT01","DS","01-709-1238",2,"Adverse Event","ADVERSE EVENT","DISPOSITION EVENT",NA,NA,"2013-08-07",2013-08-07,85
"CDISCPILOT01","DS","01-709-1238",3,NA,"FINAL LAB VISIT",NA,NA,NA,"2013-08-07",2013-08-07,85
"CDISCPILOT01","DS","01-709-1259",1,"Randomized","RANDOMIZED","PROTOCOL MILESTONE",NA,NA,"2013-01-26",2013-01-26,1
"CDISCPILOT01","DS","01-709-1259",2,NA,"FINAL LAB VISIT",NA,NA,NA,"2013-06-13",2013-06-13,139
"CDISCPILOT01","DS","01-709-1259",3,"Lack of Efficacy, Patient Caregiver Perception","LACK OF EFFICACY","DISPOSITION EVENT",NA,NA,"2013-06-13",2013-06-13,139
"CDISCPILOT01","DS","01-709-1285",1,"Randomized","RANDOMIZED","PROTOCOL MILESTONE",NA,NA,"2013-03-24",2013-03-24,1
"CDISCPILOT01","DS","01-709-1285",2,NA,"FINAL LAB VISIT",NA,NA,NA,"2013-05-31",2013-05-31,69
"CDISCPILOT01","DS","01-709-1285",3,"Sponsor Decision (Study or Patient Discontinued by the Sponsor)","STUDY TERMINATED BY SPONSOR","DISPOSITION EVENT",NA,NA,"2013-05-31",2013-05-31,69
"CDISCPILOT01","DS","01-709-1301",1,"Randomized","RANDOMIZED","PROTOCOL MILESTONE",NA,NA,"2013-07-19",2013-07-19,1
"CDISCPILOT01","DS","01-709-1301",2,"Protocol Completed","COMPLETED","DISPOSITION EVENT",NA,NA,"2014-01-17",2014-01-17,183
"CDISCPILOT01","DS","01-709-1301",3,NA,"FINAL LAB VISIT",NA,NA,NA,"2014-01-17",2014-01-17,183
"CDISCPILOT01","DS","01-709-1306",1,"Randomized","RANDOMIZED","PROTOCOL MILESTONE",NA,NA,"2014-02-03",2014-02-03,1
"CDISCPILOT01","DS","01-709-1306",2,"Adverse Event","ADVERSE EVENT","DISPOSITION EVENT",NA,NA,"2014-06-25",2014-06-25,143
"CDISCPILOT01","DS","01-709-1306",3,NA,"FINAL LAB VISIT",NA,NA,NA,"2014-06-25",2014-06-25,143
"CDISCPILOT01","DS","01-709-1309",1,"Randomized","RANDOMIZED","PROTOCOL MILESTONE",NA,NA,"2013-06-19",2013-06-19,1
"CDISCPILOT01","DS","01-709-1309",2,"Protocol Completed","COMPLETED","DISPOSITION EVENT",NA,NA,"2013-12-19",2013-12-19,184
"CDISCPILOT01","DS","01-709-1309",3,NA,"FINAL LAB VISIT",NA,NA,NA,"2013-12-19",2013-12-19,184
"CDISCPILOT01","DS","01-709-1312",1,"Randomized","RANDOMIZED","PROTOCOL MILESTONE",NA,NA,"2014-04-20",2014-04-20,1
"CDISCPILOT01","DS","01-709-1312",2,"Protocol Completed","COMPLETED","DISPOSITION EVENT",NA,NA,"2014-10-19",2014-10-19,183
"CDISCPILOT01","DS","01-709-1312",3,NA,"FINAL LAB VISIT",NA,NA,NA,"2014-10-19",2014-10-19,183
"CDISCPILOT01","DS","01-709-1326",1,"Randomized","RANDOMIZED","PROTOCOL MILESTONE",NA,NA,"2013-04-05",2013-04-05,1
"CDISCPILOT01","DS","01-709-1326",2,"Protocol Completed","COMPLETED","DISPOSITION EVENT",NA,NA,"2013-10-02",2013-10-02,181
"CDISCPILOT01","DS","01-709-1326",3,NA,"FINAL LAB VISIT",NA,NA,NA,"2013-10-02",2013-10-02,181
"CDISCPILOT01","DS","01-709-1329",1,"Randomized","RANDOMIZED","PROTOCOL MILESTONE",NA,NA,"2013-08-15",2013-08-15,1
"CDISCPILOT01","DS","01-709-1329",2,NA,"FINAL LAB VISIT",NA,NA,NA,"2013-08-29",2013-08-29,15
"CDISCPILOT01","DS","01-709-1329",3,"Caregiver Burden","WITHDRAWAL BY SUBJECT","DISPOSITION EVENT",NA,NA,"2013-08-29",2013-08-29,15
"CDISCPILOT01","DS","01-709-1339",1,"Randomized","RANDOMIZED","PROTOCOL MILESTONE",NA,NA,"2012-12-23",2012-12-23,1
"CDISCPILOT01","DS","01-709-1339",2,"Protocol Completed","COMPLETED","DISPOSITION EVENT",NA,NA,"2013-06-24",2013-06-24,184
"CDISCPILOT01","DS","01-709-1339",3,NA,"FINAL LAB VISIT",NA,NA,NA,"2013-06-24",2013-06-24,184
"CDISCPILOT01","DS","01-709-1424",1,"Randomized","RANDOMIZED","PROTOCOL MILESTONE",NA,NA,"2013-03-03",2013-03-03,1
"CDISCPILOT01","DS","01-709-1424",2,"Adverse Event","ADVERSE EVENT","DISPOSITION EVENT",NA,NA,"2013-03-08",2013-03-08,6
"CDISCPILOT01","DS","01-709-1424",3,NA,"FINAL LAB VISIT",NA,NA,NA,"2013-03-17",2013-03-17,15
"CDISCPILOT01","DS","01-710-1002",1,"Randomized","RANDOMIZED","PROTOCOL MILESTONE",NA,NA,"2014-01-14",2014-01-14,1
"CDISCPILOT01","DS","01-710-1002",2,"Adverse Event","ADVERSE EVENT","DISPOSITION EVENT",NA,NA,"2014-01-18",2014-01-18,5
"CDISCPILOT01","DS","01-710-1002",3,NA,"FINAL LAB VISIT",NA,NA,NA,"2014-01-18",2014-01-18,5
"CDISCPILOT01","DS","01-710-1006",1,"Randomized","RANDOMIZED","PROTOCOL MILESTONE",NA,NA,"2013-02-10",2013-02-10,1
"CDISCPILOT01","DS","01-710-1006",2,"Protocol Completed","COMPLETED","DISPOSITION EVENT",NA,NA,"2013-08-10",2013-08-10,182
"CDISCPILOT01","DS","01-710-1006",3,NA,"FINAL LAB VISIT",NA,NA,NA,"2013-08-10",2013-08-10,182
"CDISCPILOT01","DS","01-710-1021",1,"Randomized","RANDOMIZED","PROTOCOL MILESTONE",NA,NA,"2013-09-27",2013-09-27,1
"CDISCPILOT01","DS","01-710-1021",2,"Adverse Event","ADVERSE EVENT","DISPOSITION EVENT",NA,NA,"2013-11-12",2013-11-12,47
"CDISCPILOT01","DS","01-710-1021",3,NA,"FINAL LAB VISIT",NA,NA,NA,"2013-11-12",2013-11-12,47
"CDISCPILOT01","DS","01-710-1027",1,"Randomized","RANDOMIZED","PROTOCOL MILESTONE",NA,NA,"2014-02-28",2014-02-28,1
"CDISCPILOT01","DS","01-710-1027",2,"Protocol Completed","COMPLETED","DISPOSITION EVENT",NA,NA,"2014-08-29",2014-08-29,183
"CDISCPILOT01","DS","01-710-1027",3,NA,"FINAL LAB VISIT",NA,NA,NA,"2014-08-29",2014-08-29,183
"CDISCPILOT01","DS","01-710-1045",1,"Randomized","RANDOMIZED","PROTOCOL MILESTONE",NA,NA,"2013-06-03",2013-06-03,1
"CDISCPILOT01","DS","01-710-1045",2,"Adverse Event","ADVERSE EVENT","DISPOSITION EVENT",NA,NA,"2013-08-17",2013-08-17,76
"CDISCPILOT01","DS","01-710-1045",3,NA,"FINAL LAB VISIT",NA,NA,NA,"2013-08-17",2013-08-17,76
"CDISCPILOT01","DS","01-710-1053",1,"Randomized","RANDOMIZED","PROTOCOL MILESTONE",NA,NA,"2012-12-26",2012-12-26,1
"CDISCPILOT01","DS","01-710-1053",2,"Adverse Event","ADVERSE EVENT","DISPOSITION EVENT",NA,NA,"2013-02-15",2013-02-15,52
"CDISCPILOT01","DS","01-710-1053",3,NA,"FINAL LAB VISIT",NA,NA,NA,"2013-02-26",2013-02-26,63
"CDISCPILOT01","DS","01-710-1060",1,"Randomized","RANDOMIZED","PROTOCOL MILESTONE",NA,NA,"2013-01-01",2013-01-01,1
"CDISCPILOT01","DS","01-710-1060",2,"Protocol Completed","COMPLETED","DISPOSITION EVENT",NA,NA,"2013-07-05",2013-07-05,186
"CDISCPILOT01","DS","01-710-1060",3,NA,"FINAL LAB VISIT",NA,NA,NA,"2013-07-05",2013-07-05,186
"CDISCPILOT01","DS","01-710-1070",1,"Randomized","RANDOMIZED","PROTOCOL MILESTONE",NA,NA,"2012-09-08",2012-09-08,1
"CDISCPILOT01","DS","01-710-1070",2,NA,"FINAL LAB VISIT",NA,NA,NA,"2012-12-28",2012-12-28,112
"CDISCPILOT01","DS","01-710-1070",3,"Adverse Event","ADVERSE EVENT","DISPOSITION EVENT",NA,NA,"2013-02-23",2013-02-23,169
"CDISCPILOT01","DS","01-710-1077",1,"Randomized","RANDOMIZED","PROTOCOL MILESTONE",NA,NA,"2013-11-17",2013-11-17,1
"CDISCPILOT01","DS","01-710-1077",2,"Protocol Completed","COMPLETED","DISPOSITION EVENT",NA,NA,"2014-05-18",2014-05-18,183
"CDISCPILOT01","DS","01-710-1077",3,NA,"FINAL LAB VISIT",NA,NA,NA,"2014-05-18",2014-05-18,183
"CDISCPILOT01","DS","01-710-1078",1,"Randomized","RANDOMIZED","PROTOCOL MILESTONE",NA,NA,"2013-09-17",2013-09-17,1
"CDISCPILOT01","DS","01-710-1078",2,"Protocol Completed","COMPLETED","DISPOSITION EVENT",NA,NA,"2014-03-23",2014-03-23,188
"CDISCPILOT01","DS","01-710-1078",3,NA,"FINAL LAB VISIT",NA,NA,NA,"2014-03-23",2014-03-23,188
"CDISCPILOT01","DS","01-710-1083",1,NA,"FINAL LAB VISIT",NA,NA,NA,"2013-07-09",2013-07-09,-13
"CDISCPILOT01","DS","01-710-1083",2,"Randomized","RANDOMIZED","PROTOCOL MILESTONE",NA,NA,"2013-07-22",2013-07-22,1
"CDISCPILOT01","DS","01-710-1083",3,"Death","DEATH","DISPOSITION EVENT",NA,NA,"2013-08-03",2013-08-02,12
"CDISCPILOT01","DS","01-710-1129",1,"Screen Failure","SCREEN FAILURE","DISPOSITION EVENT",NA,NA,"2013-03-05",2013-03-05,NA
"CDISCPILOT01","DS","01-710-1137",1,"Randomized","RANDOMIZED","PROTOCOL MILESTONE",NA,NA,"2013-10-11",2013-10-11,1
"CDISCPILOT01","DS","01-710-1137",2,"Adverse Event","ADVERSE EVENT","DISPOSITION EVENT",NA,NA,"2013-11-13",2013-11-13,34
"CDISCPILOT01","DS","01-710-1137",3,NA,"FINAL LAB VISIT",NA,NA,NA,"2013-11-13",2013-11-13,34
"CDISCPILOT01","DS","01-710-1142",1,"Randomized","RANDOMIZED","PROTOCOL MILESTONE",NA,NA,"2012-10-02",2012-10-02,1
"CDISCPILOT01","DS","01-710-1142",2,"Adverse Event","ADVERSE EVENT","DISPOSITION EVENT",NA,NA,"2012-10-23",2012-10-23,22
"CDISCPILOT01","DS","01-710-1142",3,NA,"FINAL LAB VISIT",NA,NA,NA,"2012-10-23",2012-10-23,22
"CDISCPILOT01","DS","01-710-1149",1,"Screen Failure","SCREEN FAILURE","DISPOSITION EVENT",NA,NA,"2013-11-16",2013-11-16,NA
"CDISCPILOT01","DS","01-710-1154",1,"Randomized","RANDOMIZED","PROTOCOL MILESTONE",NA,NA,"2014-03-29",2014-03-29,1
"CDISCPILOT01","DS","01-710-1154",2,"Adverse Event","ADVERSE EVENT","DISPOSITION EVENT",NA,NA,"2014-05-09",2014-05-09,42
"CDISCPILOT01","DS","01-710-1154",3,NA,"FINAL LAB VISIT",NA,NA,NA,"2014-05-09",2014-05-09,42
"CDISCPILOT01","DS","01-710-1166",1,"Randomized","RANDOMIZED","PROTOCOL MILESTONE",NA,NA,"2012-11-30",2012-11-30,1
"CDISCPILOT01","DS","01-710-1166",2,"Adverse Event","ADVERSE EVENT","DISPOSITION EVENT",NA,NA,"2013-03-30",2013-03-30,121
"CDISCPILOT01","DS","01-710-1166",3,NA,"FINAL LAB VISIT",NA,NA,NA,"2013-03-30",2013-03-30,121
"CDISCPILOT01","DS","01-710-1183",1,"Randomized","RANDOMIZED","PROTOCOL MILESTONE",NA,NA,"2013-11-16",2013-11-16,1
"CDISCPILOT01","DS","01-710-1183",2,"Protocol Completed","COMPLETED","DISPOSITION EVENT",NA,NA,"2014-05-17",2014-05-17,183
"CDISCPILOT01","DS","01-710-1183",3,NA,"FINAL LAB VISIT",NA,NA,NA,"2014-05-17",2014-05-17,183
"CDISCPILOT01","DS","01-710-1187",1,"Randomized","RANDOMIZED","PROTOCOL MILESTONE",NA,NA,"2012-11-10",2012-11-10,1
"CDISCPILOT01","DS","01-710-1187",2,"Protocol Completed","COMPLETED","DISPOSITION EVENT",NA,NA,"2013-05-12",2013-05-12,184
"CDISCPILOT01","DS","01-710-1187",3,NA,"FINAL LAB VISIT",NA,NA,NA,"2013-05-12",2013-05-12,184
"CDISCPILOT01","DS","01-710-1235",1,"Randomized","RANDOMIZED","PROTOCOL MILESTONE",NA,NA,"2012-09-26",2012-09-26,1
"CDISCPILOT01","DS","01-710-1235",2,"Protocol Completed","COMPLETED","DISPOSITION EVENT",NA,NA,"2013-03-27",2013-03-27,183
"CDISCPILOT01","DS","01-710-1235",3,NA,"FINAL LAB VISIT",NA,NA,NA,"2013-03-27",2013-03-27,183
"CDISCPILOT01","DS","01-710-1249",1,"Randomized","RANDOMIZED","PROTOCOL MILESTONE",NA,NA,"2013-12-28",2013-12-28,1
"CDISCPILOT01","DS","01-710-1249",2,"Protocol Completed","COMPLETED","DISPOSITION EVENT",NA,NA,"2014-06-28",2014-06-28,183
"CDISCPILOT01","DS","01-710-1249",3,NA,"FINAL LAB VISIT",NA,NA,NA,"2014-06-28",2014-06-28,183
"CDISCPILOT01","DS","01-710-1257",1,"Screen Failure","SCREEN FAILURE","DISPOSITION EVENT",NA,NA,"2013-11-29",2013-11-29,NA
"CDISCPILOT01","DS","01-710-1264",1,"Randomized","RANDOMIZED","PROTOCOL MILESTONE",NA,NA,"2013-06-13",2013-06-13,1
"CDISCPILOT01","DS","01-710-1264",2,"Adverse Event","ADVERSE EVENT","DISPOSITION EVENT",NA,NA,"2013-10-12",2013-10-12,122
"CDISCPILOT01","DS","01-710-1264",3,NA,"FINAL LAB VISIT",NA,NA,NA,"2013-10-12",2013-10-12,122
"CDISCPILOT01","DS","01-710-1270",1,"Randomized","RANDOMIZED","PROTOCOL MILESTONE",NA,NA,"2014-02-12",2014-02-12,1
"CDISCPILOT01","DS","01-710-1270",2,"Adverse Event","ADVERSE EVENT","DISPOSITION EVENT",NA,NA,"2014-03-01",2014-03-01,18
"CDISCPILOT01","DS","01-710-1270",3,NA,"FINAL LAB VISIT",NA,NA,NA,"2014-03-01",2014-03-01,18
"CDISCPILOT01","DS","01-710-1271",1,"Randomized","RANDOMIZED","PROTOCOL MILESTONE",NA,NA,"2012-09-27",2012-09-27,1
"CDISCPILOT01","DS","01-710-1271",2,NA,"FINAL LAB VISIT",NA,NA,NA,"2012-11-08",2012-11-08,43
"CDISCPILOT01","DS","01-710-1271",3,"Adverse Event","ADVERSE EVENT","DISPOSITION EVENT",NA,NA,"2012-12-02",2012-12-02,67
"CDISCPILOT01","DS","01-710-1278",1,"Randomized","RANDOMIZED","PROTOCOL MILESTONE",NA,NA,"2012-12-24",2012-12-24,1
"CDISCPILOT01","DS","01-710-1278",2,"Adverse Event","ADVERSE EVENT","DISPOSITION EVENT",NA,NA,"2013-03-03",2013-03-03,70
"CDISCPILOT01","DS","01-710-1278",3,NA,"FINAL LAB VISIT",NA,NA,NA,"2013-03-07",2013-03-07,74
"CDISCPILOT01","DS","01-710-1300",1,"Randomized","RANDOMIZED","PROTOCOL MILESTONE",NA,NA,"2012-12-15",2012-12-15,1
"CDISCPILOT01","DS","01-710-1300",2,"Adverse Event","ADVERSE EVENT","DISPOSITION EVENT",NA,NA,"2013-02-19",2013-02-19,67
"CDISCPILOT01","DS","01-710-1300",3,NA,"FINAL LAB VISIT",NA,NA,NA,"2013-02-19",2013-02-19,67
"CDISCPILOT01","DS","01-710-1314",1,"Randomized","RANDOMIZED","PROTOCOL MILESTONE",NA,NA,"2013-04-24",2013-04-24,1
"CDISCPILOT01","DS","01-710-1314",2,NA,"FINAL LAB VISIT",NA,NA,NA,"2013-05-23",2013-05-23,30
"CDISCPILOT01","DS","01-710-1314",3,"Patient Refuses to Continue","WITHDRAWAL BY SUBJECT","DISPOSITION EVENT",NA,NA,"2013-05-25",2013-05-25,32
"CDISCPILOT01","DS","01-710-1315",1,"Randomized","RANDOMIZED","PROTOCOL MILESTONE",NA,NA,"2013-02-27",2013-02-27,1
"CDISCPILOT01","DS","01-710-1315",2,"Adverse Event","ADVERSE EVENT","DISPOSITION EVENT",NA,NA,"2013-07-16",2013-07-16,140
"CDISCPILOT01","DS","01-710-1315",3,NA,"FINAL LAB VISIT",NA,NA,NA,"2013-07-16",2013-07-16,140
"CDISCPILOT01","DS","01-710-1337",1,"Screen Failure","SCREEN FAILURE","DISPOSITION EVENT",NA,NA,"2013-12-30",2013-12-30,NA
"CDISCPILOT01","DS","01-710-1354",1,"Randomized","RANDOMIZED","PROTOCOL MILESTONE",NA,NA,"2012-11-11",2012-11-11,1
"CDISCPILOT01","DS","01-710-1354",2,"Protocol Completed","COMPLETED","DISPOSITION EVENT",NA,NA,"2013-05-01",2013-05-01,172
"CDISCPILOT01","DS","01-710-1354",3,NA,"FINAL LAB VISIT",NA,NA,NA,"2013-05-01",2013-05-01,172
"CDISCPILOT01","DS","01-710-1358",1,"Randomized","RANDOMIZED","PROTOCOL MILESTONE",NA,NA,"2012-09-17",2012-09-17,1
"CDISCPILOT01","DS","01-710-1358",2,NA,"FINAL LAB VISIT",NA,NA,NA,"2013-02-06",2013-02-06,143
"CDISCPILOT01","DS","01-710-1358",3,"Caregiver Was Hospitalized;see Comments","WITHDRAWAL BY SUBJECT","DISPOSITION EVENT",NA,NA,"2013-03-12",2013-03-12,177
"CDISCPILOT01","DS","01-710-1368",1,"Randomized","RANDOMIZED","PROTOCOL MILESTONE",NA,NA,"2013-10-23",2013-10-23,1
"CDISCPILOT01","DS","01-710-1368",2,"Protocol Completed","COMPLETED","DISPOSITION EVENT",NA,NA,"2014-04-24",2014-04-24,184
"CDISCPILOT01","DS","01-710-1368",3,NA,"FINAL LAB VISIT",NA,NA,NA,"2014-04-24",2014-04-24,184
"CDISCPILOT01","DS","01-710-1376",1,"Screen Failure","SCREEN FAILURE","DISPOSITION EVENT",NA,NA,"2014-04-21",2014-04-21,NA
"CDISCPILOT01","DS","01-710-1380",1,"Screen Failure","SCREEN FAILURE","DISPOSITION EVENT",NA,NA,"2013-06-02",2013-06-02,NA
"CDISCPILOT01","DS","01-710-1385",1,"Randomized","RANDOMIZED","PROTOCOL MILESTONE",NA,NA,"2012-10-29",2012-10-29,1
"CDISCPILOT01","DS","01-710-1385",2,"Adverse Event","ADVERSE EVENT","DISPOSITION EVENT",NA,NA,"2013-02-18",2013-02-18,113
"CDISCPILOT01","DS","01-710-1385",3,NA,"FINAL LAB VISIT",NA,NA,NA,"2013-02-18",2013-02-18,113
"CDISCPILOT01","DS","01-710-1408",1,"Randomized","RANDOMIZED","PROTOCOL MILESTONE",NA,NA,"2013-01-05",2013-01-05,1
"CDISCPILOT01","DS","01-710-1408",2,"Protocol Completed","COMPLETED","DISPOSITION EVENT",NA,NA,"2013-07-12",2013-07-12,189
"CDISCPILOT01","DS","01-710-1408",3,NA,"FINAL LAB VISIT",NA,NA,NA,"2013-07-12",2013-07-12,189
"CDISCPILOT01","DS","01-710-1443",1,"Screen Failure","SCREEN FAILURE","DISPOSITION EVENT",NA,NA,"2013-12-13",2013-12-13,NA
"CDISCPILOT01","DS","01-711-1012",1,"Randomized","RANDOMIZED","PROTOCOL MILESTONE",NA,NA,"2013-04-03",2013-04-03,1
"CDISCPILOT01","DS","01-711-1012",2,"Adverse Event","ADVERSE EVENT","DISPOSITION EVENT",NA,NA,"2013-05-02",2013-05-02,30
"CDISCPILOT01","DS","01-711-1012",3,NA,"FINAL LAB VISIT",NA,NA,NA,"2013-05-02",2013-05-02,30
"CDISCPILOT01","DS","01-711-1012",4,NA,"FINAL RETRIEVAL VISIT",NA,NA,NA,"2013-09-18",2013-09-18,169
"CDISCPILOT01","DS","01-711-1022",1,"Screen Failure","SCREEN FAILURE","DISPOSITION EVENT",NA,NA,"2014-03-17",2014-03-17,NA
"CDISCPILOT01","DS","01-711-1036",1,"Randomized","RANDOMIZED","PROTOCOL MILESTONE",NA,NA,"2012-07-29",2012-07-29,1
"CDISCPILOT01","DS","01-711-1036",2,"Protocol Completed","COMPLETED","DISPOSITION EVENT",NA,NA,"2013-02-10",2013-02-10,197
"CDISCPILOT01","DS","01-711-1036",3,NA,"FINAL LAB VISIT",NA,NA,NA,"2013-02-10",2013-02-10,197
"CDISCPILOT01","DS","01-711-1143",1,"Randomized","RANDOMIZED","PROTOCOL MILESTONE",NA,NA,"2013-04-03",2013-04-03,1
"CDISCPILOT01","DS","01-711-1143",2,"Adverse Event","ADVERSE EVENT","DISPOSITION EVENT",NA,NA,"2013-06-01",2013-06-01,60
"CDISCPILOT01","DS","01-711-1143",3,NA,"FINAL LAB VISIT",NA,NA,NA,"2013-06-01",2013-06-01,60
"CDISCPILOT01","DS","01-711-1143",4,NA,"FINAL RETRIEVAL VISIT",NA,NA,NA,"2013-09-22",2013-09-22,173
"CDISCPILOT01","DS","01-711-1163",1,"Screen Failure","SCREEN FAILURE","DISPOSITION EVENT",NA,NA,"2012-11-08",2012-11-08,NA
"CDISCPILOT01","DS","01-711-1173",1,"Screen Failure","SCREEN FAILURE","DISPOSITION EVENT",NA,NA,"2012-10-04",2012-10-04,NA
"CDISCPILOT01","DS","01-711-1226",1,"Screen Failure","SCREEN FAILURE","DISPOSITION EVENT",NA,NA,"2013-10-24",2013-10-24,NA
"CDISCPILOT01","DS","01-711-1251",1,"Screen Failure","SCREEN FAILURE","DISPOSITION EVENT",NA,NA,"2014-02-28",2014-02-28,NA
"CDISCPILOT01","DS","01-711-1283",1,"Screen Failure","SCREEN FAILURE","DISPOSITION EVENT",NA,NA,"2014-03-27",2014-03-27,NA
"CDISCPILOT01","DS","01-711-1284",1,"Screen Failure","SCREEN FAILURE","DISPOSITION EVENT",NA,NA,"2013-08-05",2013-08-05,NA
"CDISCPILOT01","DS","01-711-1290",1,"Screen Failure","SCREEN FAILURE","DISPOSITION EVENT",NA,NA,"2013-12-20",2013-12-20,NA
"CDISCPILOT01","DS","01-711-1433",1,"Randomized","RANDOMIZED","PROTOCOL MILESTONE",NA,NA,"2013-01-27",2013-01-27,1
"CDISCPILOT01","DS","01-711-1433",2,"Adverse Event","ADVERSE EVENT","DISPOSITION EVENT",NA,NA,"2013-02-06",2013-02-06,11
"CDISCPILOT01","DS","01-711-1433",3,NA,"FINAL LAB VISIT",NA,NA,NA,"2013-02-06",2013-02-06,11
"CDISCPILOT01","DS","01-713-1043",1,"Randomized","RANDOMIZED","PROTOCOL MILESTONE",NA,NA,"2013-09-15",2013-09-15,1
"CDISCPILOT01","DS","01-713-1043",2,"Protocol Completed","COMPLETED","DISPOSITION EVENT",NA,NA,"2014-03-24",2014-03-24,191
"CDISCPILOT01","DS","01-713-1043",3,NA,"FINAL LAB VISIT",NA,NA,NA,"2014-03-24",2014-03-24,191
"CDISCPILOT01","DS","01-713-1073",1,"Randomized","RANDOMIZED","PROTOCOL MILESTONE",NA,NA,"2014-03-30",2014-03-30,1
"CDISCPILOT01","DS","01-713-1073",2,"Protocol Completed","COMPLETED","DISPOSITION EVENT",NA,NA,"2014-10-05",2014-10-05,190
"CDISCPILOT01","DS","01-713-1073",3,NA,"FINAL LAB VISIT",NA,NA,NA,"2014-10-05",2014-10-05,190
"CDISCPILOT01","DS","01-713-1106",1,"Randomized","RANDOMIZED","PROTOCOL MILESTONE",NA,NA,"2012-10-31",2012-10-31,1
"CDISCPILOT01","DS","01-713-1106",2,"Protocol Completed","COMPLETED","DISPOSITION EVENT",NA,NA,"2013-05-06",2013-05-06,188
"CDISCPILOT01","DS","01-713-1106",3,NA,"FINAL LAB VISIT",NA,NA,NA,"2013-05-06",2013-05-06,188
"CDISCPILOT01","DS","01-713-1141",1,"Randomized","RANDOMIZED","PROTOCOL MILESTONE",NA,NA,"2013-05-31",2013-05-31,1
"CDISCPILOT01","DS","01-713-1141",2,"Adverse Event","ADVERSE EVENT","DISPOSITION EVENT",NA,NA,"2013-08-06",2013-08-06,68
"CDISCPILOT01","DS","01-713-1141",3,NA,"FINAL LAB VISIT",NA,NA,NA,"2013-08-06",2013-08-06,68
"CDISCPILOT01","DS","01-713-1179",1,"Randomized","RANDOMIZED","PROTOCOL MILESTONE",NA,NA,"2013-08-09",2013-08-09,1
"CDISCPILOT01","DS","01-713-1179",2,"Protocol Completed","COMPLETED","DISPOSITION EVENT",NA,NA,"2014-02-05",2014-02-05,181
"CDISCPILOT01","DS","01-713-1179",3,NA,"FINAL LAB VISIT",NA,NA,NA,"2014-02-05",2014-02-05,181
"CDISCPILOT01","DS","01-713-1209",1,"Randomized","RANDOMIZED","PROTOCOL MILESTONE",NA,NA,"2013-05-27",2013-05-27,1
"CDISCPILOT01","DS","01-713-1209",2,"Protocol Completed","COMPLETED","DISPOSITION EVENT",NA,NA,"2013-11-22",2013-11-22,180
"CDISCPILOT01","DS","01-713-1209",3,NA,"FINAL LAB VISIT",NA,NA,NA,"2013-11-22",2013-11-22,180
"CDISCPILOT01","DS","01-713-1256",1,"Randomized","RANDOMIZED","PROTOCOL MILESTONE",NA,NA,"2012-09-19",2012-09-19,1
"CDISCPILOT01","DS","01-713-1256",2,"Protocol Completed","COMPLETED","DISPOSITION EVENT",NA,NA,"2013-03-25",2013-03-25,188
"CDISCPILOT01","DS","01-713-1256",3,NA,"FINAL LAB VISIT",NA,NA,NA,"2013-03-25",2013-03-25,188
"CDISCPILOT01","DS","01-713-1269",1,"Randomized","RANDOMIZED","PROTOCOL MILESTONE",NA,NA,"2014-01-27",2014-01-27,1
"CDISCPILOT01","DS","01-713-1269",2,"Protocol Completed","COMPLETED","DISPOSITION EVENT",NA,NA,"2014-07-28",2014-07-28,183
"CDISCPILOT01","DS","01-713-1269",3,NA,"FINAL LAB VISIT",NA,NA,NA,"2014-07-28",2014-07-28,183
"CDISCPILOT01","DS","01-713-1448",1,"Randomized","RANDOMIZED","PROTOCOL MILESTONE",NA,NA,"2014-01-19",2014-01-19,1
"CDISCPILOT01","DS","01-713-1448",2,"Adverse Event","ADVERSE EVENT","DISPOSITION EVENT",NA,NA,"2014-05-17",2014-05-17,119
"CDISCPILOT01","DS","01-713-1448",3,NA,"FINAL LAB VISIT",NA,NA,NA,"2014-05-17",2014-05-17,119
"CDISCPILOT01","DS","01-713-1448",4,NA,"FINAL RETRIEVAL VISIT",NA,NA,NA,"2014-07-27",2014-07-27,190
"CDISCPILOT01","DS","01-714-1035",1,"Randomized","RANDOMIZED","PROTOCOL MILESTONE",NA,NA,"2014-04-17",2014-04-17,1
"CDISCPILOT01","DS","01-714-1035",2,"Protocol Completed","COMPLETED","DISPOSITION EVENT",NA,NA,"2014-10-16",2014-10-16,183
"CDISCPILOT01","DS","01-714-1035",3,NA,"FINAL LAB VISIT",NA,NA,NA,"2014-10-16",2014-10-16,183
"CDISCPILOT01","DS","01-714-1068",1,"Randomized","RANDOMIZED","PROTOCOL MILESTONE",NA,NA,"2013-08-08",2013-08-08,1
"CDISCPILOT01","DS","01-714-1068",2,"Adverse Event","ADVERSE EVENT","DISPOSITION EVENT",NA,NA,"2013-10-16",2013-10-16,70
"CDISCPILOT01","DS","01-714-1068",3,NA,"FINAL LAB VISIT",NA,NA,NA,"2013-10-16",2013-10-16,70
"CDISCPILOT01","DS","01-714-1195",1,"Randomized","RANDOMIZED","PROTOCOL MILESTONE",NA,NA,"2013-04-26",2013-04-26,1
"CDISCPILOT01","DS","01-714-1195",2,"Protocol Completed","COMPLETED","DISPOSITION EVENT",NA,NA,"2013-10-23",2013-10-23,181
"CDISCPILOT01","DS","01-714-1195",3,NA,"FINAL LAB VISIT",NA,NA,NA,"2013-10-23",2013-10-23,181
"CDISCPILOT01","DS","01-714-1288",1,"Randomized","RANDOMIZED","PROTOCOL MILESTONE",NA,NA,"2013-12-04",2013-12-04,1
"CDISCPILOT01","DS","01-714-1288",2,"Protocol Completed","COMPLETED","DISPOSITION EVENT",NA,NA,"2014-06-17",2014-06-17,196
"CDISCPILOT01","DS","01-714-1288",3,NA,"FINAL LAB VISIT",NA,NA,NA,"2014-06-17",2014-06-17,196
"CDISCPILOT01","DS","01-714-1375",1,"Randomized","RANDOMIZED","PROTOCOL MILESTONE",NA,NA,"2013-02-26",2013-02-26,1
"CDISCPILOT01","DS","01-714-1375",2,"Protocol Completed","COMPLETED","DISPOSITION EVENT",NA,NA,"2013-09-07",2013-09-07,194
"CDISCPILOT01","DS","01-714-1375",3,NA,"FINAL LAB VISIT",NA,NA,NA,"2013-09-07",2013-09-07,194
"CDISCPILOT01","DS","01-714-1425",1,"Randomized","RANDOMIZED","PROTOCOL MILESTONE",NA,NA,"2013-08-15",2013-08-15,1
"CDISCPILOT01","DS","01-714-1425",2,NA,"FINAL LAB VISIT",NA,NA,NA,"2013-08-22",2013-08-22,8
"CDISCPILOT01","DS","01-714-1425",3,"Sponsor Decision (Study or Patient Discontinued by the Sponsor)","STUDY TERMINATED BY SPONSOR","DISPOSITION EVENT",NA,NA,"2013-08-22",2013-08-22,8
"CDISCPILOT01","DS","01-715-1085",1,"Randomized","RANDOMIZED","PROTOCOL MILESTONE",NA,NA,"2013-02-16",2013-02-16,1
"CDISCPILOT01","DS","01-715-1085",2,"Protocol Completed","COMPLETED","DISPOSITION EVENT",NA,NA,"2013-08-18",2013-08-18,184
"CDISCPILOT01","DS","01-715-1085",3,NA,"FINAL LAB VISIT",NA,NA,NA,"2013-08-18",2013-08-18,184
"CDISCPILOT01","DS","01-715-1107",1,"Randomized","RANDOMIZED","PROTOCOL MILESTONE",NA,NA,"2013-02-26",2013-02-26,1
"CDISCPILOT01","DS","01-715-1107",2,"Adverse Event","ADVERSE EVENT","DISPOSITION EVENT",NA,NA,"2013-05-13",2013-05-13,77
"CDISCPILOT01","DS","01-715-1107",3,NA,"FINAL LAB VISIT",NA,NA,NA,"2013-08-14",2013-08-14,170
"CDISCPILOT01","DS","01-715-1107",4,NA,"FINAL RETRIEVAL VISIT",NA,NA,NA,"2013-08-14",2013-08-14,170
"CDISCPILOT01","DS","01-715-1134",1,"Screen Failure","SCREEN FAILURE","DISPOSITION EVENT",NA,NA,"2014-04-17",2014-04-17,NA
"CDISCPILOT01","DS","01-715-1155",1,"Randomized","RANDOMIZED","PROTOCOL MILESTONE",NA,NA,"2013-12-13",2013-12-13,1
"CDISCPILOT01","DS","01-715-1155",2,NA,"FINAL LAB VISIT",NA,NA,NA,"2014-01-10",2014-01-10,29
"CDISCPILOT01","DS","01-715-1155",3,"Caregiver Withdrew from Study","WITHDRAWAL BY SUBJECT","DISPOSITION EVENT",NA,NA,"2014-04-26",2014-04-26,135
"CDISCPILOT01","DS","01-715-1207",1,"Randomized","RANDOMIZED","PROTOCOL MILESTONE",NA,NA,"2012-11-18",2012-11-18,1
"CDISCPILOT01","DS","01-715-1207",2,"Protocol Completed","COMPLETED","DISPOSITION EVENT",NA,NA,"2013-06-01",2013-06-01,196
"CDISCPILOT01","DS","01-715-1207",3,NA,"FINAL LAB VISIT",NA,NA,NA,"2013-06-01",2013-06-01,196
"CDISCPILOT01","DS","01-715-1225",1,"Screen Failure","SCREEN FAILURE","DISPOSITION EVENT",NA,NA,"2013-01-22",2013-01-22,NA
"CDISCPILOT01","DS","01-715-1319",1,"Randomized","RANDOMIZED","PROTOCOL MILESTONE",NA,NA,"2013-02-17",2013-02-17,1
"CDISCPILOT01","DS","01-715-1319",2,NA,"FINAL LAB VISIT",NA,NA,NA,"2013-03-18",2013-03-18,30
"CDISCPILOT01","DS","01-715-1319",3,"Too Much Trouble for Caregiver","WITHDRAWAL BY SUBJECT","DISPOSITION EVENT",NA,NA,"2013-03-18",2013-03-18,30
"CDISCPILOT01","DS","01-715-1321",1,"Randomized","RANDOMIZED","PROTOCOL MILESTONE",NA,NA,"2014-02-11",2014-02-11,1
"CDISCPILOT01","DS","01-715-1321",2,"Adverse Event","ADVERSE EVENT","DISPOSITION EVENT",NA,NA,"2014-04-22",2014-04-22,71
"CDISCPILOT01","DS","01-715-1321",3,NA,"FINAL LAB VISIT",NA,NA,NA,"2014-04-22",2014-04-22,71
"CDISCPILOT01","DS","01-715-1333",1,"Screen Failure","SCREEN FAILURE","DISPOSITION EVENT",NA,NA,"2013-06-03",2013-06-03,NA
"CDISCPILOT01","DS","01-715-1397",1,"Randomized","RANDOMIZED","PROTOCOL MILESTONE",NA,NA,"2013-04-03",2013-04-03,1
"CDISCPILOT01","DS","01-715-1397",2,"Protocol Completed","COMPLETED","DISPOSITION EVENT",NA,NA,"2013-10-03",2013-10-03,184
"CDISCPILOT01","DS","01-715-1397",3,NA,"FINAL LAB VISIT",NA,NA,NA,"2013-10-03",2013-10-03,184
"CDISCPILOT01","DS","01-715-1405",1,"Randomized","RANDOMIZED","PROTOCOL MILESTONE",NA,NA,"2013-07-06",2013-07-06,1
"CDISCPILOT01","DS","01-715-1405",2,"Adverse Event","ADVERSE EVENT","DISPOSITION EVENT",NA,NA,"2013-07-13",2013-07-13,8
"CDISCPILOT01","DS","01-715-1405",3,NA,"FINAL LAB VISIT",NA,NA,NA,"2013-07-13",2013-07-13,8
"CDISCPILOT01","DS","01-715-1405",4,NA,"FINAL RETRIEVAL VISIT",NA,NA,NA,"2014-01-11",2014-01-11,190
"CDISCPILOT01","DS","01-715-1407",1,"Screen Failure","SCREEN FAILURE","DISPOSITION EVENT",NA,NA,"2012-10-24",2012-10-24,NA
"CDISCPILOT01","DS","01-716-1003",1,"Screen Failure","SCREEN FAILURE","DISPOSITION EVENT",NA,NA,"2014-03-29",2014-03-29,NA
"CDISCPILOT01","DS","01-716-1024",1,"Randomized","RANDOMIZED","PROTOCOL MILESTONE",NA,NA,"2012-07-09",2012-07-09,1
"CDISCPILOT01","DS","01-716-1024",2,"Protocol Completed","COMPLETED","DISPOSITION EVENT",NA,NA,"2013-01-20",2013-01-20,196
"CDISCPILOT01","DS","01-716-1024",3,NA,"FINAL LAB VISIT",NA,NA,NA,"2013-01-20",2013-01-20,196
"CDISCPILOT01","DS","01-716-1026",1,"Randomized","RANDOMIZED","PROTOCOL MILESTONE",NA,NA,"2014-04-02",2014-04-02,1
"CDISCPILOT01","DS","01-716-1026",2,"Protocol Completed","COMPLETED","DISPOSITION EVENT",NA,NA,"2014-10-16",2014-10-16,198
"CDISCPILOT01","DS","01-716-1026",3,NA,"FINAL LAB VISIT",NA,NA,NA,"2014-10-16",2014-10-16,198
"CDISCPILOT01","DS","01-716-1030",1,"Randomized","RANDOMIZED","PROTOCOL MILESTONE",NA,NA,"2013-12-28",2013-12-28,1
"CDISCPILOT01","DS","01-716-1030",2,NA,"FINAL LAB VISIT",NA,NA,NA,"2014-01-10",2014-01-10,14
"CDISCPILOT01","DS","01-716-1030",3,"Pt Kept Removing Patches","WITHDRAWAL BY SUBJECT","DISPOSITION EVENT",NA,NA,"2014-01-10",2014-01-10,14
"CDISCPILOT01","DS","01-716-1044",1,"Randomized","RANDOMIZED","PROTOCOL MILESTONE",NA,NA,"2013-04-27",2013-04-27,1
"CDISCPILOT01","DS","01-716-1044",2,"Protocol Completed","COMPLETED","DISPOSITION EVENT",NA,NA,"2013-11-03",2013-11-03,191
"CDISCPILOT01","DS","01-716-1044",3,NA,"FINAL LAB VISIT",NA,NA,NA,"2013-11-03",2013-11-03,191
"CDISCPILOT01","DS","01-716-1061",1,"Screen Failure","SCREEN FAILURE","DISPOSITION EVENT",NA,NA,"2014-02-14",2014-02-14,NA
"CDISCPILOT01","DS","01-716-1063",1,"Randomized","RANDOMIZED","PROTOCOL MILESTONE",NA,NA,"2013-05-09",2013-05-09,1
"CDISCPILOT01","DS","01-716-1063",2,"Adverse Event","ADVERSE EVENT","DISPOSITION EVENT",NA,NA,"2013-08-28",2013-08-28,112
"CDISCPILOT01","DS","01-716-1063",3,NA,"FINAL LAB VISIT",NA,NA,NA,"2013-08-28",2013-08-28,112
"CDISCPILOT01","DS","01-716-1063",4,NA,"FINAL RETRIEVAL VISIT",NA,NA,NA,"2013-11-17",2013-11-17,193
"CDISCPILOT01","DS","01-716-1071",1,"Randomized","RANDOMIZED","PROTOCOL MILESTONE",NA,NA,"2013-06-08",2013-06-08,1
"CDISCPILOT01","DS","01-716-1071",2,"Adverse Event","ADVERSE EVENT","DISPOSITION EVENT",NA,NA,"2013-08-01",2013-08-01,55
"CDISCPILOT01","DS","01-716-1071",3,NA,"FINAL LAB VISIT",NA,NA,NA,"2013-08-01",2013-08-01,55
"CDISCPILOT01","DS","01-716-1071",4,NA,"FINAL RETRIEVAL VISIT",NA,NA,NA,"2013-12-16",2013-12-16,192
"CDISCPILOT01","DS","01-716-1094",1,"Randomized","RANDOMIZED","PROTOCOL MILESTONE",NA,NA,"2012-12-19",2012-12-19,1
"CDISCPILOT01","DS","01-716-1094",2,"Adverse Event","ADVERSE EVENT","DISPOSITION EVENT",NA,NA,"2013-01-26",2013-01-26,39
"CDISCPILOT01","DS","01-716-1094",3,NA,"FINAL LAB VISIT",NA,NA,NA,"2013-01-26",2013-01-26,39
"CDISCPILOT01","DS","01-716-1094",4,NA,"FINAL RETRIEVAL VISIT",NA,NA,NA,"2013-06-22",2013-06-22,186
"CDISCPILOT01","DS","01-716-1103",1,"Randomized","RANDOMIZED","PROTOCOL MILESTONE",NA,NA,"2014-03-20",2014-03-20,1
"CDISCPILOT01","DS","01-716-1103",2,"Protocol Completed","COMPLETED","DISPOSITION EVENT",NA,NA,"2014-09-20",2014-09-20,185
"CDISCPILOT01","DS","01-716-1103",3,NA,"FINAL LAB VISIT",NA,NA,NA,"2014-09-20",2014-09-20,185
"CDISCPILOT01","DS","01-716-1108",1,"Randomized","RANDOMIZED","PROTOCOL MILESTONE",NA,NA,"2013-02-12",2013-02-12,1
"CDISCPILOT01","DS","01-716-1108",2,"Protocol Completed","COMPLETED","DISPOSITION EVENT",NA,NA,"2013-08-10",2013-08-10,180
"CDISCPILOT01","DS","01-716-1108",3,NA,"FINAL LAB VISIT",NA,NA,NA,"2013-08-10",2013-08-10,180
"CDISCPILOT01","DS","01-716-1151",1,"Randomized","RANDOMIZED","PROTOCOL MILESTONE",NA,NA,"2013-02-01",2013-02-01,1
"CDISCPILOT01","DS","01-716-1151",2,"Adverse Event","ADVERSE EVENT","DISPOSITION EVENT",NA,NA,"2013-06-07",2013-06-07,127
"CDISCPILOT01","DS","01-716-1151",3,NA,"FINAL LAB VISIT",NA,NA,NA,"2013-06-07",2013-06-07,127
"CDISCPILOT01","DS","01-716-1151",4,NA,"FINAL RETRIEVAL VISIT",NA,NA,NA,"2013-08-13",2013-08-13,194
"CDISCPILOT01","DS","01-716-1157",1,"Randomized","RANDOMIZED","PROTOCOL MILESTONE",NA,NA,"2013-10-02",2013-10-02,1
"CDISCPILOT01","DS","01-716-1157",2,"Protocol Completed","COMPLETED","DISPOSITION EVENT",NA,NA,"2014-04-05",2014-04-05,186
"CDISCPILOT01","DS","01-716-1157",3,NA,"FINAL LAB VISIT",NA,NA,NA,"2014-04-05",2014-04-05,186
"CDISCPILOT01","DS","01-716-1160",1,"Randomized","RANDOMIZED","PROTOCOL MILESTONE",NA,NA,"2013-04-05",2013-04-05,1
"CDISCPILOT01","DS","01-716-1160",2,"Protocol Completed","COMPLETED","DISPOSITION EVENT",NA,NA,"2013-10-11",2013-10-11,190
"CDISCPILOT01","DS","01-716-1160",3,NA,"FINAL LAB VISIT",NA,NA,NA,"2013-10-11",2013-10-11,190
"CDISCPILOT01","DS","01-716-1167",1,"Randomized","RANDOMIZED","PROTOCOL MILESTONE",NA,NA,"2012-10-08",2012-10-08,1
"CDISCPILOT01","DS","01-716-1167",2,"Protocol Completed","COMPLETED","DISPOSITION EVENT",NA,NA,"2013-04-13",2013-04-13,188
"CDISCPILOT01","DS","01-716-1167",3,NA,"FINAL LAB VISIT",NA,NA,NA,"2013-04-13",2013-04-13,188
"CDISCPILOT01","DS","01-716-1177",1,"Randomized","RANDOMIZED","PROTOCOL MILESTONE",NA,NA,"2014-09-02",2014-09-02,1
"CDISCPILOT01","DS","01-716-1177",2,"Protocol Completed","COMPLETED","DISPOSITION EVENT",NA,NA,"2015-03-05",2015-03-05,185
"CDISCPILOT01","DS","01-716-1177",3,NA,"FINAL LAB VISIT",NA,NA,NA,"2015-03-05",2015-03-05,185
"CDISCPILOT01","DS","01-716-1189",1,"Randomized","RANDOMIZED","PROTOCOL MILESTONE",NA,NA,"2012-10-09",2012-10-09,1
"CDISCPILOT01","DS","01-716-1189",2,"Adverse Event","ADVERSE EVENT","DISPOSITION EVENT",NA,NA,"2013-03-03",2013-03-03,146
"CDISCPILOT01","DS","01-716-1189",3,NA,"FINAL LAB VISIT",NA,NA,NA,"2013-03-03",2013-03-03,146
"CDISCPILOT01","DS","01-716-1189",4,NA,"FINAL RETRIEVAL VISIT",NA,NA,NA,"2013-04-08",2013-04-08,182
"CDISCPILOT01","DS","01-716-1229",1,"Randomized","RANDOMIZED","PROTOCOL MILESTONE",NA,NA,"2013-02-20",2013-02-20,1
"CDISCPILOT01","DS","01-716-1229",2,"Adverse Event","ADVERSE EVENT","DISPOSITION EVENT",NA,NA,"2013-04-02",2013-04-02,42
"CDISCPILOT01","DS","01-716-1229",3,NA,"FINAL LAB VISIT",NA,NA,NA,"2013-04-02",2013-04-02,42
"CDISCPILOT01","DS","01-716-1244",1,"Screen Failure","SCREEN FAILURE","DISPOSITION EVENT",NA,NA,"2013-08-15",2013-08-15,NA
"CDISCPILOT01","DS","01-716-1298",1,"Randomized","RANDOMIZED","PROTOCOL MILESTONE",NA,NA,"2013-04-08",2013-04-08,1
"CDISCPILOT01","DS","01-716-1298",2,"Adverse Event","ADVERSE EVENT","DISPOSITION EVENT",NA,NA,"2013-07-06",2013-07-06,90
"CDISCPILOT01","DS","01-716-1298",3,NA,"FINAL LAB VISIT",NA,NA,NA,"2013-07-06",2013-07-06,90
"CDISCPILOT01","DS","01-716-1298",4,NA,"FINAL RETRIEVAL VISIT",NA,NA,NA,"2013-10-07",2013-10-07,183
"CDISCPILOT01","DS","01-716-1305",1,"Screen Failure","SCREEN FAILURE","DISPOSITION EVENT",NA,NA,"2013-08-06",2013-08-06,NA
"CDISCPILOT01","DS","01-716-1308",1,"Randomized","RANDOMIZED","PROTOCOL MILESTONE",NA,NA,"2013-08-28",2013-08-28,1
"CDISCPILOT01","DS","01-716-1308",2,NA,"FINAL LAB VISIT",NA,NA,NA,"2013-10-07",2013-10-07,41
"CDISCPILOT01","DS","01-716-1308",3,"Placed in Nursing Home","WITHDRAWAL BY SUBJECT","DISPOSITION EVENT",NA,NA,"2013-10-07",2013-10-07,41
"CDISCPILOT01","DS","01-716-1311",1,"Randomized","RANDOMIZED","PROTOCOL MILESTONE",NA,NA,"2014-05-14",2014-05-14,1
"CDISCPILOT01","DS","01-716-1311",2,NA,"FINAL LAB VISIT",NA,NA,NA,"2014-09-30",2014-09-30,140
"CDISCPILOT01","DS","01-716-1311",3,"Institutionalized","WITHDRAWAL BY SUBJECT","DISPOSITION EVENT",NA,NA,"2014-09-30",2014-09-30,140
"CDISCPILOT01","DS","01-716-1311",4,NA,"FINAL RETRIEVAL VISIT",NA,NA,NA,"2014-11-15",2014-11-15,186
"CDISCPILOT01","DS","01-716-1331",1,"Screen Failure","SCREEN FAILURE","DISPOSITION EVENT",NA,NA,"2013-11-25",2013-11-25,NA
"CDISCPILOT01","DS","01-716-1364",1,"Randomized","RANDOMIZED","PROTOCOL MILESTONE",NA,NA,"2013-07-04",2013-07-04,1
"CDISCPILOT01","DS","01-716-1364",2,"Protocol Completed","COMPLETED","DISPOSITION EVENT",NA,NA,"2014-01-09",2014-01-09,190
"CDISCPILOT01","DS","01-716-1364",3,NA,"FINAL LAB VISIT",NA,NA,NA,"2014-01-09",2014-01-09,190
"CDISCPILOT01","DS","01-716-1373",1,"Randomized","RANDOMIZED","PROTOCOL MILESTONE",NA,NA,"2012-12-14",2012-12-14,1
"CDISCPILOT01","DS","01-716-1373",2,"Adverse Event","ADVERSE EVENT","DISPOSITION EVENT",NA,NA,"2013-02-28",2013-02-28,77
"CDISCPILOT01","DS","01-716-1373",3,NA,"FINAL LAB VISIT",NA,NA,NA,"2013-02-28",2013-02-28,77
"CDISCPILOT01","DS","01-716-1418",1,"Randomized","RANDOMIZED","PROTOCOL MILESTONE",NA,NA,"2013-05-05",2013-05-05,1
"CDISCPILOT01","DS","01-716-1418",2,"Protocol Completed","COMPLETED","DISPOSITION EVENT",NA,NA,"2013-11-20",2013-11-20,200
"CDISCPILOT01","DS","01-716-1418",3,NA,"FINAL LAB VISIT",NA,NA,NA,"2013-11-20",2013-11-20,200
"CDISCPILOT01","DS","01-716-1441",1,"Randomized","RANDOMIZED","PROTOCOL MILESTONE",NA,NA,"2014-01-22",2014-01-22,1
"CDISCPILOT01","DS","01-716-1441",2,"Protocol Completed","COMPLETED","DISPOSITION EVENT",NA,NA,"2014-07-22",2014-07-22,182
"CDISCPILOT01","DS","01-716-1441",3,NA,"FINAL LAB VISIT",NA,NA,NA,"2014-07-22",2014-07-22,182
"CDISCPILOT01","DS","01-716-1447",1,"Randomized","RANDOMIZED","PROTOCOL MILESTONE",NA,NA,"2013-12-16",2013-12-16,1
"CDISCPILOT01","DS","01-716-1447",2,"Protocol Completed","COMPLETED","DISPOSITION EVENT",NA,NA,"2014-06-17",2014-06-17,184
"CDISCPILOT01","DS","01-716-1447",3,NA,"FINAL LAB VISIT",NA,NA,NA,"2014-06-17",2014-06-17,184
"CDISCPILOT01","DS","01-717-1004",1,"Randomized","RANDOMIZED","PROTOCOL MILESTONE",NA,NA,"2014-01-14",2014-01-14,1
"CDISCPILOT01","DS","01-717-1004",2,"Protocol Completed","COMPLETED","DISPOSITION EVENT",NA,NA,"2014-07-16",2014-07-16,184
"CDISCPILOT01","DS","01-717-1004",3,NA,"FINAL LAB VISIT",NA,NA,NA,"2014-07-16",2014-07-16,184
"CDISCPILOT01","DS","01-717-1109",1,"Randomized","RANDOMIZED","PROTOCOL MILESTONE",NA,NA,"2014-01-27",2014-01-27,1
"CDISCPILOT01","DS","01-717-1109",2,"Protocol Completed","COMPLETED","DISPOSITION EVENT",NA,NA,"2014-07-28",2014-07-28,183
"CDISCPILOT01","DS","01-717-1109",3,NA,"FINAL LAB VISIT",NA,NA,NA,"2014-07-28",2014-07-28,183
"CDISCPILOT01","DS","01-717-1174",1,"Randomized","RANDOMIZED","PROTOCOL MILESTONE",NA,NA,"2013-01-22",2013-01-22,1
"CDISCPILOT01","DS","01-717-1174",2,"Protocol Completed","COMPLETED","DISPOSITION EVENT",NA,NA,"2013-07-24",2013-07-24,184
"CDISCPILOT01","DS","01-717-1174",3,NA,"FINAL LAB VISIT",NA,NA,NA,"2013-07-24",2013-07-24,184
"CDISCPILOT01","DS","01-717-1201",1,"Randomized","RANDOMIZED","PROTOCOL MILESTONE",NA,NA,"2013-12-19",2013-12-19,1
"CDISCPILOT01","DS","01-717-1201",2,NA,"FINAL LAB VISIT",NA,NA,NA,"2014-02-21",2014-02-21,65
"CDISCPILOT01","DS","01-717-1201",3,"Lack of Efficacy, Patient Caregiver Perception","LACK OF EFFICACY","DISPOSITION EVENT",NA,NA,"2014-02-21",2014-02-21,65
"CDISCPILOT01","DS","01-717-1344",1,"Randomized","RANDOMIZED","PROTOCOL MILESTONE",NA,NA,"2014-01-11",2014-01-11,1
"CDISCPILOT01","DS","01-717-1344",2,NA,"FINAL LAB VISIT",NA,NA,NA,"2014-03-14",2014-03-14,63
"CDISCPILOT01","DS","01-717-1344",3,"Lack of Efficacy, Patient Caregiver Perception","LACK OF EFFICACY","DISPOSITION EVENT",NA,NA,"2014-03-14",2014-03-14,63
"CDISCPILOT01","DS","01-717-1357",1,"Randomized","RANDOMIZED","PROTOCOL MILESTONE",NA,NA,"2013-05-01",2013-05-01,1
"CDISCPILOT01","DS","01-717-1357",2,NA,"FINAL LAB VISIT",NA,NA,NA,"2013-10-20",2013-10-20,173
"CDISCPILOT01","DS","01-717-1357",3,"Sponsor Decision (Study or Patient Discontinued by the Sponsor)","STUDY TERMINATED BY SPONSOR","DISPOSITION EVENT",NA,NA,"2013-10-20",2013-10-20,173
"CDISCPILOT01","DS","01-717-1446",1,"Randomized","RANDOMIZED","PROTOCOL MILESTONE",NA,NA,"2013-09-01",2013-09-01,1
"CDISCPILOT01","DS","01-717-1446",2,"Protocol Completed","COMPLETED","DISPOSITION EVENT",NA,NA,"2014-03-04",2014-03-04,185
"CDISCPILOT01","DS","01-717-1446",3,NA,"FINAL LAB VISIT",NA,NA,NA,"2014-03-17",2014-03-17,198
"CDISCPILOT01","DS","01-718-1066",1,"Randomized","RANDOMIZED","PROTOCOL MILESTONE",NA,NA,"2013-07-07",2013-07-07,1
"CDISCPILOT01","DS","01-718-1066",2,"Adverse Event","ADVERSE EVENT","DISPOSITION EVENT",NA,NA,"2013-07-30",2013-07-30,24
"CDISCPILOT01","DS","01-718-1066",3,NA,"FINAL LAB VISIT",NA,NA,NA,"2013-07-30",2013-07-30,24
"CDISCPILOT01","DS","01-718-1079",1,"Randomized","RANDOMIZED","PROTOCOL MILESTONE",NA,NA,"2012-09-19",2012-09-19,1
"CDISCPILOT01","DS","01-718-1079",2,NA,"FINAL LAB VISIT",NA,NA,NA,"2012-10-31",2012-10-31,43
"CDISCPILOT01","DS","01-718-1079",3,"Adverse Event","ADVERSE EVENT","DISPOSITION EVENT",NA,NA,"2012-11-06",2012-11-06,49
"CDISCPILOT01","DS","01-718-1079",4,NA,"FINAL RETRIEVAL VISIT",NA,NA,NA,"2013-03-05",2013-03-05,168
"CDISCPILOT01","DS","01-718-1101",1,"Randomized","RANDOMIZED","PROTOCOL MILESTONE",NA,NA,"2013-02-17",2013-02-17,1
"CDISCPILOT01","DS","01-718-1101",2,NA,"FINAL LAB VISIT",NA,NA,NA,"2013-08-02",2013-08-02,167
"CDISCPILOT01","DS","01-718-1101",3,"Sponsor Decision (Study or Patient Discontinued by the Sponsor)","STUDY TERMINATED BY SPONSOR","DISPOSITION EVENT",NA,NA,"2013-08-02",2013-08-02,167
"CDISCPILOT01","DS","01-718-1139",1,"Randomized","RANDOMIZED","PROTOCOL MILESTONE",NA,NA,"2013-05-19",2013-05-19,1
"CDISCPILOT01","DS","01-718-1139",2,"Protocol Completed","COMPLETED","DISPOSITION EVENT",NA,NA,"2013-11-17",2013-11-17,183
"CDISCPILOT01","DS","01-718-1139",3,NA,"FINAL LAB VISIT",NA,NA,NA,"2013-11-17",2013-11-17,183
"CDISCPILOT01","DS","01-718-1150",1,"Randomized","RANDOMIZED","PROTOCOL MILESTONE",NA,NA,"2013-01-19",2013-01-19,1
"CDISCPILOT01","DS","01-718-1150",2,"Protocol Completed","COMPLETED","DISPOSITION EVENT",NA,NA,"2013-07-31",2013-07-31,194
"CDISCPILOT01","DS","01-718-1150",3,NA,"FINAL LAB VISIT",NA,NA,NA,"2013-07-31",2013-07-31,194
"CDISCPILOT01","DS","01-718-1170",1,"Randomized","RANDOMIZED","PROTOCOL MILESTONE",NA,NA,"2013-09-16",2013-09-16,1
"CDISCPILOT01","DS","01-718-1170",2,"Adverse Event","ADVERSE EVENT","DISPOSITION EVENT",NA,NA,"2013-11-03",2013-11-03,49
"CDISCPILOT01","DS","01-718-1170",3,NA,"FINAL LAB VISIT",NA,NA,NA,"2013-11-03",2013-11-03,49
"CDISCPILOT01","DS","01-718-1170",4,NA,"FINAL RETRIEVAL VISIT",NA,NA,NA,"2014-03-15",2014-03-15,181
"CDISCPILOT01","DS","01-718-1172",1,"Randomized","RANDOMIZED","PROTOCOL MILESTONE",NA,NA,"2013-09-21",2013-09-21,1
"CDISCPILOT01","DS","01-718-1172",2,NA,"FINAL LAB VISIT",NA,NA,NA,"2013-11-29",2013-11-29,70
"CDISCPILOT01","DS","01-718-1172",3,"Patient to Begin Course of Aricept","WITHDRAWAL BY SUBJECT","DISPOSITION EVENT",NA,NA,"2013-11-29",2013-11-29,70
"CDISCPILOT01","DS","01-718-1172",4,NA,"FINAL RETRIEVAL VISIT",NA,NA,NA,"2014-03-21",2014-03-21,182
"CDISCPILOT01","DS","01-718-1250",1,"Randomized","RANDOMIZED","PROTOCOL MILESTONE",NA,NA,"2013-09-21",2013-09-21,1
"CDISCPILOT01","DS","01-718-1250",2,"Adverse Event","ADVERSE EVENT","DISPOSITION EVENT",NA,NA,"2014-02-08",2014-02-08,141
"CDISCPILOT01","DS","01-718-1250",3,NA,"FINAL LAB VISIT",NA,NA,NA,"2014-02-08",2014-02-08,141
"CDISCPILOT01","DS","01-718-1250",4,NA,"FINAL RETRIEVAL VISIT",NA,NA,NA,"2014-03-08",2014-03-08,169
"CDISCPILOT01","DS","01-718-1254",1,"Randomized","RANDOMIZED","PROTOCOL MILESTONE",NA,NA,"2013-07-10",2013-07-10,1
"CDISCPILOT01","DS","01-718-1254",2,"Protocol Completed","COMPLETED","DISPOSITION EVENT",NA,NA,"2014-01-09",2014-01-09,184
"CDISCPILOT01","DS","01-718-1254",3,NA,"FINAL LAB VISIT",NA,NA,NA,"2014-01-09",2014-01-09,184
"CDISCPILOT01","DS","01-718-1328",1,"Randomized","RANDOMIZED","PROTOCOL MILESTONE",NA,NA,"2013-02-01",2013-02-01,1
"CDISCPILOT01","DS","01-718-1328",2,NA,"FINAL LAB VISIT",NA,NA,NA,"2013-05-01",2013-05-01,90
"CDISCPILOT01","DS","01-718-1328",3,"Patient Unable to Tolerate Dermal Irritation at Patch Site","WITHDRAWAL BY SUBJECT","DISPOSITION EVENT",NA,NA,"2013-05-01",2013-05-01,90
"CDISCPILOT01","DS","01-718-1328",4,NA,"FINAL RETRIEVAL VISIT",NA,NA,NA,"2013-07-24",2013-07-24,174
"CDISCPILOT01","DS","01-718-1355",1,"Randomized","RANDOMIZED","PROTOCOL MILESTONE",NA,NA,"2013-02-28",2013-02-28,1
"CDISCPILOT01","DS","01-718-1355",2,"Protocol Completed","COMPLETED","DISPOSITION EVENT",NA,NA,"2013-08-29",2013-08-29,183
"CDISCPILOT01","DS","01-718-1355",3,NA,"FINAL LAB VISIT",NA,NA,NA,"2013-08-29",2013-08-29,183
"CDISCPILOT01","DS","01-718-1371",1,"Randomized","RANDOMIZED","PROTOCOL MILESTONE",NA,NA,"2013-04-26",2013-04-26,1
"CDISCPILOT01","DS","01-718-1371",2,NA,"FINAL LAB VISIT",NA,NA,NA,"2013-08-01",2013-08-01,98
"CDISCPILOT01","DS","01-718-1371",3,"Adverse Event","ADVERSE EVENT","DISPOSITION EVENT",NA,NA,"2013-08-08",2013-08-08,105
"CDISCPILOT01","DS","01-718-1427",1,"Randomized","RANDOMIZED","PROTOCOL MILESTONE",NA,NA,"2012-12-17",2012-12-17,1
"CDISCPILOT01","DS","01-718-1427",2,NA,"FINAL LAB VISIT",NA,NA,NA,"2013-02-18",2013-02-18,64
"CDISCPILOT01","DS","01-718-1427",3,"Lack of Efficacy, Patient Caregiver Perception","LACK OF EFFICACY","DISPOSITION EVENT",NA,NA,"2013-02-18",2013-02-18,64
"CDISCPILOT01","DS","01-718-1427",4,NA,"FINAL RETRIEVAL VISIT",NA,NA,NA,"2013-06-03",2013-06-03,169
