Running DS domain creation script...

Inputs loaded.
ds_raw rows: 850  cols: 13 
dm rows: 306  cols: 26 

OAK ID variables generated.

DSTERM derived from IT.DSTERM.

DSDECOD derived using OTHERSP/IT.DSDECOD logic.
DSCAT derived using IT.DSDECOD == RANDOMIZED rule.

Core identifiers (STUDYID/DOMAIN/USUBJID) added.

DSSEQ derived.

Using DM reference date column for study day: RFXSTDTC 
DSSTDY derived.

Final DS dataset assembled with required variables.

Outputs saved:
 - ds.csv
 - ds.rds

DS domain successfully created.
Records: 127308 
Columns: 12 

Script completed without errors.
