"STUDYID","DOMAIN","USUBJID","AESEQ","AESPID","AETERM","AELLT","AELLTCD","AEDECOD","AEPTCD","AEHLT","AEHLTCD","AEHLGT","AEHLGTCD","AEBODSYS","AEBDSYCD","AESOC","AESOCCD","AESEV","AESER","AEACN","AEREL","AEOUT","AESCAN","AESCONG","AESDISAB","AESDTH","AESHOSP","AESLIFE","AESOD","AEDTC","AESTDTC","AEENDTC","AESTDY","AEENDY","TRTSDT","TRTEDT","DTHDT","EOSDT","ASTDTM","ASTDTF","ASTTMF","AENDTM","AENDTF","AENTMF","ASTDT","AENDT","ASTDY","AENDY","ADURN","ADURU","LDOSEDTM","DOSEON","DOSEU","ASEV","AREL","TRTEMFL","ASEVN","AOCCIFL","SUBJID","RFSTDTC","RFENDTC","RFXSTDTC","RFXENDTC","RFICDTC","RFPENDTC","DTHDTC","DTHFL","SITEID","AGE","AGEU","SEX","RACE","ETHNIC","ARMCD","ARM","ACTARMCD","ACTARM","COUNTRY","DMDTC","DMDY","TRT01P","TRT01A","TRTSDTM","TRTSTMF","TRTEDTM","TRTETMF","TRTDURD","SCRFDT","EOSSTT","FRVDT","RANDDT","DTHDTF","DTHADY","LDDTHELD","DTHCAUS","DTHDOM","DTHCGR1","LSTALVDT","SAFFL","RACEGR1","AGEGR1","REGION1","LDDTHGR1","DTH30FL","DTHA30FL","DTHB30FL"
"CDISCPILOT01","AE","01-701-1015",1,"E07","APPLICATION SITE ERYTHEMA","APPLICATION SITE REDNESS",NA,"APPLICATION SITE ERYTHEMA",NA,"HLT_0617",NA,"HLGT_0152",NA,"GENERAL DISORDERS AND ADMINISTRATION SITE CONDITIONS",NA,"GENERAL DISORDERS AND ADMINISTRATION SITE CONDITIONS",NA,"MILD","N",NA,"PROBABLE","NOT RECOVERED/NOT RESOLVED","N","N","N","N","N","N","N","2014-01-16","2014-01-03",NA,2,NA,2014-01-02,2014-07-02,NA,2014-07-02,2014-01-03,NA,"H",NA,NA,NA,2014-01-03,NA,2,NA,NA,NA,2014-01-03,0,"mg","MILD","PROBABLE","Y",1,"Y","1015","2014-01-02","2014-07-02","2014-01-02","2014-07-02",NA,"2014-07-02T11:45",NA,NA,"701",63,"YEARS","F","WHITE","HISPANIC OR LATINO","Pbo","Placebo","Pbo","Placebo","USA","2013-12-26",-7,"Placebo","Placebo",2014-01-02,"H",2014-07-02 23:59:59,"H",182,NA,"COMPLETED",NA,2014-01-02,NA,NA,NA,NA,NA,NA,2014-07-02,"Y","White","18-64","NA",NA,NA,NA,NA
"CDISCPILOT01","AE","01-701-1015",2,"E08","APPLICATION SITE PRURITUS","APPLICATION SITE ITCHING",NA,"APPLICATION SITE PRURITUS",NA,"HLT_0317",NA,"HLGT_0338",NA,"GENERAL DISORDERS AND ADMINISTRATION SITE CONDITIONS",NA,"GENERAL DISORDERS AND ADMINISTRATION SITE CONDITIONS",NA,"MILD","N",NA,"PROBABLE","NOT RECOVERED/NOT RESOLVED","N","N","N","N","N","N","N","2014-01-16","2014-01-03",NA,2,NA,2014-01-02,2014-07-02,NA,2014-07-02,2014-01-03,NA,"H",NA,NA,NA,2014-01-03,NA,2,NA,NA,NA,2014-01-03,0,"mg","MILD","PROBABLE","Y",1,NA,"1015","2014-01-02","2014-07-02","2014-01-02","2014-07-02",NA,"2014-07-02T11:45",NA,NA,"701",63,"YEARS","F","WHITE","HISPANIC OR LATINO","Pbo","Placebo","Pbo","Placebo","USA","2013-12-26",-7,"Placebo","Placebo",2014-01-02,"H",2014-07-02 23:59:59,"H",182,NA,"COMPLETED",NA,2014-01-02,NA,NA,NA,NA,NA,NA,2014-07-02,"Y","White","18-64","NA",NA,NA,NA,NA
"CDISCPILOT01","AE","01-701-1015",3,"E06","DIARRHOEA","DIARRHEA",NA,"DIARRHOEA",NA,"HLT_0148",NA,"HLGT_0588",NA,"GASTROINTESTINAL DISORDERS",NA,"GASTROINTESTINAL DISORDERS",NA,"MILD","N",NA,"REMOTE","RECOVERED/RESOLVED","N","N","N","N","N","N","N","2014-01-16","2014-01-09","2014-01-11",8,10,2014-01-02,2014-07-02,NA,2014-07-02,2014-01-09,NA,"H",2014-01-11 23:59:59,NA,"H",2014-01-09,2014-01-11,8,10,3,"days",2014-01-09,0,"mg","MILD","REMOTE","Y",1,NA,"1015","2014-01-02","2014-07-02","2014-01-02","2014-07-02",NA,"2014-07-02T11:45",NA,NA,"701",63,"YEARS","F","WHITE","HISPANIC OR LATINO","Pbo","Placebo","Pbo","Placebo","USA","2013-12-26",-7,"Placebo","Placebo",2014-01-02,"H",2014-07-02 23:59:59,"H",182,NA,"COMPLETED",NA,2014-01-02,NA,NA,NA,NA,NA,NA,2014-07-02,"Y","White","18-64","NA",NA,NA,NA,NA
"CDISCPILOT01","AE","01-701-1023",2,"E09","ERYTHEMA","LOCALIZED ERYTHEMA",NA,"ERYTHEMA",NA,"HLT_0284",NA,"HLGT_0192",NA,"SKIN AND SUBCUTANEOUS TISSUE DISORDERS",NA,"SKIN AND SUBCUTANEOUS TISSUE DISORDERS",NA,"MODERATE","N",NA,"PROBABLE","NOT RECOVERED/NOT RESOLVED","N","N","N","N","N","N","N","2012-08-27","2012-08-07",NA,3,NA,2012-08-05,2012-09-01,NA,2012-09-02,2012-08-07,NA,"H",NA,NA,NA,2012-08-07,NA,3,NA,NA,NA,2012-08-07,0,"mg","MODERATE","PROBABLE","Y",2,"Y","1023","2012-08-05","2012-09-02","2012-08-05","2012-09-01",NA,"2013-02-18",NA,NA,"701",64,"YEARS","M","WHITE","HISPANIC OR LATINO","Pbo","Placebo","Pbo","Placebo","USA","2012-07-22",-14,"Placebo","Placebo",2012-08-05,"H",2012-09-01 23:59:59,"H",28,NA,"DISCONTINUED",2013-02-18,2012-08-05,NA,NA,NA,NA,NA,NA,2012-09-02,"Y","White","18-64","NA",NA,NA,NA,NA
"CDISCPILOT01","AE","01-701-1023",1,"E08","ERYTHEMA","ERYTHEMA",NA,"ERYTHEMA",NA,"HLT_0284",NA,"HLGT_0192",NA,"SKIN AND SUBCUTANEOUS TISSUE DISORDERS",NA,"SKIN AND SUBCUTANEOUS TISSUE DISORDERS",NA,"MILD","N",NA,"POSSIBLE","NOT RECOVERED/NOT RESOLVED","N","N","N","N","N","N","N","2012-08-27","2012-08-07","2012-08-30",3,26,2012-08-05,2012-09-01,NA,2012-09-02,2012-08-07,NA,"H",2012-08-30 23:59:59,NA,"H",2012-08-07,2012-08-30,3,26,24,"days",2012-08-07,0,"mg","MILD","POSSIBLE","Y",1,NA,"1023","2012-08-05","2012-09-02","2012-08-05","2012-09-01",NA,"2013-02-18",NA,NA,"701",64,"YEARS","M","WHITE","HISPANIC OR LATINO","Pbo","Placebo","Pbo","Placebo","USA","2012-07-22",-14,"Placebo","Placebo",2012-08-05,"H",2012-09-01 23:59:59,"H",28,NA,"DISCONTINUED",2013-02-18,2012-08-05,NA,NA,NA,NA,NA,NA,2012-09-02,"Y","White","18-64","NA",NA,NA,NA,NA
"CDISCPILOT01","AE","01-701-1023",4,"E08","ERYTHEMA","ERYTHEMA",NA,"ERYTHEMA",NA,"HLT_0284",NA,"HLGT_0192",NA,"SKIN AND SUBCUTANEOUS TISSUE DISORDERS",NA,"SKIN AND SUBCUTANEOUS TISSUE DISORDERS",NA,"MILD","N",NA,"POSSIBLE","RECOVERED/RESOLVED","N","N","N","N","N","N","N","2012-09-02","2012-08-07","2012-08-30",3,26,2012-08-05,2012-09-01,NA,2012-09-02,2012-08-07,NA,"H",2012-08-30 23:59:59,NA,"H",2012-08-07,2012-08-30,3,26,24,"days",2012-08-07,0,"mg","MILD","POSSIBLE","Y",1,NA,"1023","2012-08-05","2012-09-02","2012-08-05","2012-09-01",NA,"2013-02-18",NA,NA,"701",64,"YEARS","M","WHITE","HISPANIC OR LATINO","Pbo","Placebo","Pbo","Placebo","USA","2012-07-22",-14,"Placebo","Placebo",2012-08-05,"H",2012-09-01 23:59:59,"H",28,NA,"DISCONTINUED",2013-02-18,2012-08-05,NA,NA,NA,NA,NA,NA,2012-09-02,"Y","White","18-64","NA",NA,NA,NA,NA
"CDISCPILOT01","AE","01-701-1023",3,"E10","ATRIOVENTRICULAR BLOCK SECOND DEGREE","AV BLOCK SECOND DEGREE",NA,"ATRIOVENTRICULAR BLOCK SECOND DEGREE",NA,"HLT_0415",NA,"HLGT_0086",NA,"CARDIAC DISORDERS",NA,"CARDIAC DISORDERS",NA,"MILD","N",NA,"POSSIBLE","NOT RECOVERED/NOT RESOLVED","N","N","N","N","N","N","N","2012-08-27","2012-08-26",NA,22,NA,2012-08-05,2012-09-01,NA,2012-09-02,2012-08-26,NA,"H",NA,NA,NA,2012-08-26,NA,22,NA,NA,NA,2012-08-26,0,"mg","MILD","POSSIBLE","Y",1,NA,"1023","2012-08-05","2012-09-02","2012-08-05","2012-09-01",NA,"2013-02-18",NA,NA,"701",64,"YEARS","M","WHITE","HISPANIC OR LATINO","Pbo","Placebo","Pbo","Placebo","USA","2012-07-22",-14,"Placebo","Placebo",2012-08-05,"H",2012-09-01 23:59:59,"H",28,NA,"DISCONTINUED",2013-02-18,2012-08-05,NA,NA,NA,NA,NA,NA,2012-09-02,"Y","White","18-64","NA",NA,NA,NA,NA
"CDISCPILOT01","AE","01-701-1028",1,"E04","APPLICATION SITE ERYTHEMA","APPLICATION SITE ERYTHEMA",NA,"APPLICATION SITE ERYTHEMA",NA,"HLT_0617",NA,"HLGT_0152",NA,"GENERAL DISORDERS AND ADMINISTRATION SITE CONDITIONS",NA,"GENERAL DISORDERS AND ADMINISTRATION SITE CONDITIONS",NA,"MILD","N",NA,"POSSIBLE","NOT RECOVERED/NOT RESOLVED","N","N","N","N","N","N","N","2013-08-01","2013-07-21",NA,3,NA,2013-07-19,2014-01-14,NA,2014-01-14,2013-07-21,NA,"H",NA,NA,NA,2013-07-21,NA,3,NA,NA,NA,2013-07-21,54,"mg","MILD","POSSIBLE","Y",1,"Y","1028","2013-07-19","2014-01-14","2013-07-19","2014-01-14",NA,"2014-01-14T11:10",NA,NA,"701",71,"YEARS","M","WHITE","NOT HISPANIC OR LATINO","Xan_Hi","Xanomeline High Dose","Xan_Hi","Xanomeline High Dose","USA","2013-07-11",-8,"Xanomeline High Dose","Xanomeline High Dose",2013-07-19,"H",2014-01-14 23:59:59,"H",180,NA,"COMPLETED",NA,2013-07-19,NA,NA,NA,NA,NA,NA,2014-01-14,"Y","White",">64","NA",NA,NA,NA,NA
"CDISCPILOT01","AE","01-701-1028",2,"E05","APPLICATION SITE PRURITUS","APPLICATION SITE ITCHING",NA,"APPLICATION SITE PRURITUS",NA,"HLT_0317",NA,"HLGT_0338",NA,"GENERAL DISORDERS AND ADMINISTRATION SITE CONDITIONS",NA,"GENERAL DISORDERS AND ADMINISTRATION SITE CONDITIONS",NA,"MILD","N",NA,"PROBABLE","NOT RECOVERED/NOT RESOLVED","N","N","N","N","N","N","N","2013-08-14","2013-08-08",NA,21,NA,2013-07-19,2014-01-14,NA,2014-01-14,2013-08-08,NA,"H",NA,NA,NA,2013-08-08,NA,21,NA,NA,NA,2013-08-01,NA,NA,"MILD","PROBABLE","Y",1,NA,"1028","2013-07-19","2014-01-14","2013-07-19","2014-01-14",NA,"2014-01-14T11:10",NA,NA,"701",71,"YEARS","M","WHITE","NOT HISPANIC OR LATINO","Xan_Hi","Xanomeline High Dose","Xan_Hi","Xanomeline High Dose","USA","2013-07-11",-8,"Xanomeline High Dose","Xanomeline High Dose",2013-07-19,"H",2014-01-14 23:59:59,"H",180,NA,"COMPLETED",NA,2013-07-19,NA,NA,NA,NA,NA,NA,2014-01-14,"Y","White",">64","NA",NA,NA,NA,NA
"CDISCPILOT01","AE","01-701-1034",1,"E08","APPLICATION SITE PRURITUS","APPLICATION SITE ITCHING",NA,"APPLICATION SITE PRURITUS",NA,"HLT_0317",NA,"HLGT_0338",NA,"GENERAL DISORDERS AND ADMINISTRATION SITE CONDITIONS",NA,"GENERAL DISORDERS AND ADMINISTRATION SITE CONDITIONS",NA,"MILD","N",NA,"PROBABLE","NOT RECOVERED/NOT RESOLVED","N","N","N","N","N","N","N","2014-09-25","2014-08-27",NA,58,NA,2014-07-01,2014-12-30,NA,2014-12-30,2014-08-27,NA,"H",NA,NA,NA,2014-08-27,NA,58,NA,NA,NA,2014-07-15,NA,NA,"MILD","PROBABLE","Y",1,"Y","1034","2014-07-01","2014-12-30","2014-07-01","2014-12-30",NA,"2014-12-30T09:50",NA,NA,"701",77,"YEARS","F","WHITE","NOT HISPANIC OR LATINO","Xan_Hi","Xanomeline High Dose","Xan_Hi","Xanomeline High Dose","USA","2014-06-24",-7,"Xanomeline High Dose","Xanomeline High Dose",2014-07-01,"H",2014-12-30 23:59:59,"H",183,NA,"COMPLETED",NA,2014-07-01,NA,NA,NA,NA,NA,NA,2014-12-30,"Y","White",">64","NA",NA,NA,NA,NA
"CDISCPILOT01","AE","01-701-1034",2,"E07","FATIGUE","FATIGUE",NA,"FATIGUE",NA,"HLT_0043",NA,"HLGT_0181",NA,"GENERAL DISORDERS AND ADMINISTRATION SITE CONDITIONS",NA,"GENERAL DISORDERS AND ADMINISTRATION SITE CONDITIONS",NA,"MILD","N",NA,"POSSIBLE","NOT RECOVERED/NOT RESOLVED","N","N","N","N","N","N","N","2014-11-18","2014-11-02",NA,125,NA,2014-07-01,2014-12-30,NA,2014-12-30,2014-11-02,NA,"H",NA,NA,NA,2014-11-02,NA,125,NA,NA,NA,2014-07-15,NA,NA,"MILD","POSSIBLE","Y",1,NA,"1034","2014-07-01","2014-12-30","2014-07-01","2014-12-30",NA,"2014-12-30T09:50",NA,NA,"701",77,"YEARS","F","WHITE","NOT HISPANIC OR LATINO","Xan_Hi","Xanomeline High Dose","Xan_Hi","Xanomeline High Dose","USA","2014-06-24",-7,"Xanomeline High Dose","Xanomeline High Dose",2014-07-01,"H",2014-12-30 23:59:59,"H",183,NA,"COMPLETED",NA,2014-07-01,NA,NA,NA,NA,NA,NA,2014-12-30,"Y","White",">64","NA",NA,NA,NA,NA
"CDISCPILOT01","AE","01-701-1047",1,"E06","HIATUS HERNIA","HERNIA HIATAL",NA,"HIATUS HERNIA",NA,"HLT_0159",NA,"HLGT_0109",NA,"GASTROINTESTINAL DISORDERS",NA,"GASTROINTESTINAL DISORDERS",NA,"MODERATE","N",NA,"NONE","NOT RECOVERED/NOT RESOLVED","N","N","N","N","N","N","N","2013-02-12","2013-02-12","2013-02-12",1,1,2013-02-12,2013-03-09,NA,2013-03-29,2013-02-12,NA,"H",2013-02-12 23:59:59,NA,"H",2013-02-12,2013-02-12,1,1,1,"days",2013-02-12,0,"mg","MODERATE","NONE","Y",2,"Y","1047","2013-02-12","2013-03-29","2013-02-12","2013-03-09",NA,"2013-07-28",NA,NA,"701",85,"YEARS","F","WHITE","NOT HISPANIC OR LATINO","Pbo","Placebo","Pbo","Placebo","USA","2013-01-22",-21,"Placebo","Placebo",2013-02-12,"H",2013-03-09 23:59:59,"H",26,NA,"DISCONTINUED",2013-07-28,2013-02-12,NA,NA,NA,NA,NA,NA,2013-04-07,"Y","White",">64","NA",NA,NA,NA,NA
"CDISCPILOT01","AE","01-701-1047",2,"E06","HIATUS HERNIA","HERNIA HIATAL",NA,"HIATUS HERNIA",NA,"HLT_0159",NA,"HLGT_0109",NA,"GASTROINTESTINAL DISORDERS",NA,"GASTROINTESTINAL DISORDERS",NA,"MODERATE","N",NA,"NONE","RECOVERED/RESOLVED","N","N","N","N","N","N","N","2013-02-25","2013-02-12","2013-02-12",1,1,2013-02-12,2013-03-09,NA,2013-03-29,2013-02-12,NA,"H",2013-02-12 23:59:59,NA,"H",2013-02-12,2013-02-12,1,1,1,"days",2013-02-12,0,"mg","MODERATE","NONE","Y",2,NA,"1047","2013-02-12","2013-03-29","2013-02-12","2013-03-09",NA,"2013-07-28",NA,NA,"701",85,"YEARS","F","WHITE","NOT HISPANIC OR LATINO","Pbo","Placebo","Pbo","Placebo","USA","2013-01-22",-21,"Placebo","Placebo",2013-02-12,"H",2013-03-09 23:59:59,"H",26,NA,"DISCONTINUED",2013-07-28,2013-02-12,NA,NA,NA,NA,NA,NA,2013-04-07,"Y","White",">64","NA",NA,NA,NA,NA
"CDISCPILOT01","AE","01-701-1047",3,"E08","UPPER RESPIRATORY TRACT INFECTION","UPPER RESPIRATORY INFECTION",NA,"UPPER RESPIRATORY TRACT INFECTION",NA,"HLT_0520",NA,"HLGT_0489",NA,"INFECTIONS AND INFESTATIONS",NA,"INFECTIONS AND INFESTATIONS",NA,"MILD","N",NA,"NONE","NOT RECOVERED/NOT RESOLVED","N","N","N","N","N","N","N","2013-03-10","2013-03-06",NA,23,NA,2013-02-12,2013-03-09,NA,2013-03-29,2013-03-06,NA,"H",NA,NA,NA,2013-03-06,NA,23,NA,NA,NA,2013-03-06,0,"mg","MILD","NONE","Y",1,NA,"1047","2013-02-12","2013-03-29","2013-02-12","2013-03-09",NA,"2013-07-28",NA,NA,"701",85,"YEARS","F","WHITE","NOT HISPANIC OR LATINO","Pbo","Placebo","Pbo","Placebo","USA","2013-01-22",-21,"Placebo","Placebo",2013-02-12,"H",2013-03-09 23:59:59,"H",26,NA,"DISCONTINUED",2013-07-28,2013-02-12,NA,NA,NA,NA,NA,NA,2013-04-07,"Y","White",">64","NA",NA,NA,NA,NA
"CDISCPILOT01","AE","01-701-1047",4,"E09","BUNDLE BRANCH BLOCK LEFT","LEFT BUNDLE BRANCH BLOCK",NA,"BUNDLE BRANCH BLOCK LEFT",NA,"HLT_0281",NA,"HLGT_0721",NA,"CARDIAC DISORDERS",NA,"CARDIAC DISORDERS",NA,"MILD","N",NA,"NONE","NOT RECOVERED/NOT RESOLVED","N","N","N","N","N","N","N","2013-03-10","2013-03-10",NA,27,NA,2013-02-12,2013-03-09,NA,2013-03-29,2013-03-10,NA,"H",NA,NA,NA,2013-03-10,NA,27,NA,NA,NA,2013-03-09,NA,NA,"MILD","NONE","Y",1,NA,"1047","2013-02-12","2013-03-29","2013-02-12","2013-03-09",NA,"2013-07-28",NA,NA,"701",85,"YEARS","F","WHITE","NOT HISPANIC OR LATINO","Pbo","Placebo","Pbo","Placebo","USA","2013-01-22",-21,"Placebo","Placebo",2013-02-12,"H",2013-03-09 23:59:59,"H",26,NA,"DISCONTINUED",2013-07-28,2013-02-12,NA,NA,NA,NA,NA,NA,2013-04-07,"Y","White",">64","NA",NA,NA,NA,NA
"CDISCPILOT01","AE","01-701-1097",2,"E05","PRURITUS GENERALISED","GENERALIZED PRURITUS",NA,"PRURITUS GENERALISED",NA,"HLT_0123",NA,"HLGT_0689",NA,"SKIN AND SUBCUTANEOUS TISSUE DISORDERS",NA,"SKIN AND SUBCUTANEOUS TISSUE DISORDERS",NA,"MODERATE","N",NA,"POSSIBLE","RECOVERED/RESOLVED","N","N","N","N","N","N","N","2014-02-26","2014-02-20","2014-02-20",51,51,2014-01-01,2014-07-09,NA,2014-07-09,2014-02-20,NA,"H",2014-02-20 23:59:59,NA,"H",2014-02-20,2014-02-20,51,51,1,"days",2014-02-20,54,"mg","MODERATE","POSSIBLE","Y",2,"Y","1097","2014-01-01","2014-07-09","2014-01-01","2014-07-09",NA,"2014-07-09T09:39",NA,NA,"701",68,"YEARS","M","WHITE","NOT HISPANIC OR LATINO","Xan_Lo","Xanomeline Low Dose","Xan_Lo","Xanomeline Low Dose","USA","2013-12-23",-9,"Xanomeline Low Dose","Xanomeline Low Dose",2014-01-01,"H",2014-07-09 23:59:59,"H",190,NA,"COMPLETED",NA,2014-01-01,NA,NA,NA,NA,NA,NA,2014-07-09,"Y","White",">64","NA",NA,NA,NA,NA
"CDISCPILOT01","AE","01-701-1097",10,"E06","APPLICATION SITE PRURITUS","APPLICATION SITE ITCHING",NA,"APPLICATION SITE PRURITUS",NA,"HLT_0317",NA,"HLGT_0338",NA,"GENERAL DISORDERS AND ADMINISTRATION SITE CONDITIONS",NA,"GENERAL DISORDERS AND ADMINISTRATION SITE CONDITIONS",NA,"MODERATE","N",NA,"POSSIBLE","NOT RECOVERED/NOT RESOLVED","N","N","N","N","N","N","N","2014-05-21","2014-02-21",NA,52,NA,2014-01-01,2014-07-09,NA,2014-07-09,2014-02-21,NA,"H",NA,NA,NA,2014-02-21,NA,52,NA,NA,NA,2014-02-21,54,"mg","MODERATE","POSSIBLE","Y",2,NA,"1097","2014-01-01","2014-07-09","2014-01-01","2014-07-09",NA,"2014-07-09T09:39",NA,NA,"701",68,"YEARS","M","WHITE","NOT HISPANIC OR LATINO","Xan_Lo","Xanomeline Low Dose","Xan_Lo","Xanomeline Low Dose","USA","2013-12-23",-9,"Xanomeline Low Dose","Xanomeline Low Dose",2014-01-01,"H",2014-07-09 23:59:59,"H",190,NA,"COMPLETED",NA,2014-01-01,NA,NA,NA,NA,NA,NA,2014-07-09,"Y","White",">64","NA",NA,NA,NA,NA
"CDISCPILOT01","AE","01-701-1097",5,"E08","PRURITUS GENERALISED","GENERALIZED PRURITUS",NA,"PRURITUS GENERALISED",NA,"HLT_0123",NA,"HLGT_0689",NA,"SKIN AND SUBCUTANEOUS TISSUE DISORDERS",NA,"SKIN AND SUBCUTANEOUS TISSUE DISORDERS",NA,"MODERATE","N",NA,"POSSIBLE","RECOVERED/RESOLVED","N","N","N","N","N","N","N","2014-03-26","2014-03-21","2014-03-21",80,80,2014-01-01,2014-07-09,NA,2014-07-09,2014-03-21,NA,"H",2014-03-21 23:59:59,NA,"H",2014-03-21,2014-03-21,80,80,1,"days",2014-03-21,54,"mg","MODERATE","POSSIBLE","Y",2,NA,"1097","2014-01-01","2014-07-09","2014-01-01","2014-07-09",NA,"2014-07-09T09:39",NA,NA,"701",68,"YEARS","M","WHITE","NOT HISPANIC OR LATINO","Xan_Lo","Xanomeline Low Dose","Xan_Lo","Xanomeline Low Dose","USA","2013-12-23",-9,"Xanomeline Low Dose","Xanomeline Low Dose",2014-01-01,"H",2014-07-09 23:59:59,"H",190,NA,"COMPLETED",NA,2014-01-01,NA,NA,NA,NA,NA,NA,2014-07-09,"Y","White",">64","NA",NA,NA,NA,NA
"CDISCPILOT01","AE","01-701-1097",6,"E12","PRURITUS GENERALISED","GENERALIZED PRURITUS",NA,"PRURITUS GENERALISED",NA,"HLT_0123",NA,"HLGT_0689",NA,"SKIN AND SUBCUTANEOUS TISSUE DISORDERS",NA,"SKIN AND SUBCUTANEOUS TISSUE DISORDERS",NA,"MODERATE","N",NA,"POSSIBLE","RECOVERED/RESOLVED","N","N","N","N","N","N","N","2014-04-23","2014-03-31","2014-03-31",90,90,2014-01-01,2014-07-09,NA,2014-07-09,2014-03-31,NA,"H",2014-03-31 23:59:59,NA,"H",2014-03-31,2014-03-31,90,90,1,"days",2014-03-31,54,"mg","MODERATE","POSSIBLE","Y",2,NA,"1097","2014-01-01","2014-07-09","2014-01-01","2014-07-09",NA,"2014-07-09T09:39",NA,NA,"701",68,"YEARS","M","WHITE","NOT HISPANIC OR LATINO","Xan_Lo","Xanomeline Low Dose","Xan_Lo","Xanomeline Low Dose","USA","2013-12-23",-9,"Xanomeline Low Dose","Xanomeline Low Dose",2014-01-01,"H",2014-07-09 23:59:59,"H",190,NA,"COMPLETED",NA,2014-01-01,NA,NA,NA,NA,NA,NA,2014-07-09,"Y","White",">64","NA",NA,NA,NA,NA
"CDISCPILOT01","AE","01-701-1097",7,"E09","PRURITUS GENERALISED","GENERALIZED PRURITUS",NA,"PRURITUS GENERALISED",NA,"HLT_0123",NA,"HLGT_0689",NA,"SKIN AND SUBCUTANEOUS TISSUE DISORDERS",NA,"SKIN AND SUBCUTANEOUS TISSUE DISORDERS",NA,"MODERATE","N",NA,"POSSIBLE","RECOVERED/RESOLVED","N","N","N","N","N","N","N","2014-04-23","2014-04-19","2014-04-20",109,110,2014-01-01,2014-07-09,NA,2014-07-09,2014-04-19,NA,"H",2014-04-20 23:59:59,NA,"H",2014-04-19,2014-04-20,109,110,2,"days",2014-04-19,54,"mg","MODERATE","POSSIBLE","Y",2,NA,"1097","2014-01-01","2014-07-09","2014-01-01","2014-07-09",NA,"2014-07-09T09:39",NA,NA,"701",68,"YEARS","M","WHITE","NOT HISPANIC OR LATINO","Xan_Lo","Xanomeline Low Dose","Xan_Lo","Xanomeline Low Dose","USA","2013-12-23",-9,"Xanomeline Low Dose","Xanomeline Low Dose",2014-01-01,"H",2014-07-09 23:59:59,"H",190,NA,"COMPLETED",NA,2014-01-01,NA,NA,NA,NA,NA,NA,2014-07-09,"Y","White",">64","NA",NA,NA,NA,NA
"CDISCPILOT01","AE","01-701-1097",1,"E04","ERYTHEMA","ERYTHEMA",NA,"ERYTHEMA",NA,"HLT_0284",NA,"HLGT_0192",NA,"SKIN AND SUBCUTANEOUS TISSUE DISORDERS",NA,"SKIN AND SUBCUTANEOUS TISSUE DISORDERS",NA,"MILD","N",NA,"POSSIBLE","NOT RECOVERED/NOT RESOLVED","N","N","N","N","N","N","N","2014-01-15","2014-01-03",NA,3,NA,2014-01-01,2014-07-09,NA,2014-07-09,2014-01-03,NA,"H",NA,NA,NA,2014-01-03,NA,3,NA,NA,NA,2014-01-03,54,"mg","MILD","POSSIBLE","Y",1,NA,"1097","2014-01-01","2014-07-09","2014-01-01","2014-07-09",NA,"2014-07-09T09:39",NA,NA,"701",68,"YEARS","M","WHITE","NOT HISPANIC OR LATINO","Xan_Lo","Xanomeline Low Dose","Xan_Lo","Xanomeline Low Dose","USA","2013-12-23",-9,"Xanomeline Low Dose","Xanomeline Low Dose",2014-01-01,"H",2014-07-09 23:59:59,"H",190,NA,"COMPLETED",NA,2014-01-01,NA,NA,NA,NA,NA,NA,2014-07-09,"Y","White",">64","NA",NA,NA,NA,NA
"CDISCPILOT01","AE","01-701-1097",3,"E07","APPLICATION SITE VESICLES","APPLICATION SITE BLISTER",NA,"APPLICATION SITE VESICLES",NA,"HLT_0180",NA,"HLGT_0576",NA,"GENERAL DISORDERS AND ADMINISTRATION SITE CONDITIONS",NA,"GENERAL DISORDERS AND ADMINISTRATION SITE CONDITIONS",NA,"MILD","N",NA,"PROBABLE","RECOVERED/RESOLVED","N","N","N","N","N","N","N","2014-02-26","2014-02-20","2014-02-22",51,53,2014-01-01,2014-07-09,NA,2014-07-09,2014-02-20,NA,"H",2014-02-22 23:59:59,NA,"H",2014-02-20,2014-02-22,51,53,3,"days",2014-02-20,54,"mg","MILD","PROBABLE","Y",1,NA,"1097","2014-01-01","2014-07-09","2014-01-01","2014-07-09",NA,"2014-07-09T09:39",NA,NA,"701",68,"YEARS","M","WHITE","NOT HISPANIC OR LATINO","Xan_Lo","Xanomeline Low Dose","Xan_Lo","Xanomeline Low Dose","USA","2013-12-23",-9,"Xanomeline Low Dose","Xanomeline Low Dose",2014-01-01,"H",2014-07-09 23:59:59,"H",190,NA,"COMPLETED",NA,2014-01-01,NA,NA,NA,NA,NA,NA,2014-07-09,"Y","White",">64","NA",NA,NA,NA,NA
"CDISCPILOT01","AE","01-701-1097",4,"E06","APPLICATION SITE PRURITUS","APPLICATION SITE ITCHING",NA,"APPLICATION SITE PRURITUS",NA,"HLT_0317",NA,"HLGT_0338",NA,"GENERAL DISORDERS AND ADMINISTRATION SITE CONDITIONS",NA,"GENERAL DISORDERS AND ADMINISTRATION SITE CONDITIONS",NA,"MILD","N",NA,"POSSIBLE","NOT RECOVERED/NOT RESOLVED","N","N","N","N","N","N","N","2014-02-26","2014-02-21",NA,52,NA,2014-01-01,2014-07-09,NA,2014-07-09,2014-02-21,NA,"H",NA,NA,NA,2014-02-21,NA,52,NA,NA,NA,2014-02-21,54,"mg","MILD","POSSIBLE","Y",1,NA,"1097","2014-01-01","2014-07-09","2014-01-01","2014-07-09",NA,"2014-07-09T09:39",NA,NA,"701",68,"YEARS","M","WHITE","NOT HISPANIC OR LATINO","Xan_Lo","Xanomeline Low Dose","Xan_Lo","Xanomeline Low Dose","USA","2013-12-23",-9,"Xanomeline Low Dose","Xanomeline Low Dose",2014-01-01,"H",2014-07-09 23:59:59,"H",190,NA,"COMPLETED",NA,2014-01-01,NA,NA,NA,NA,NA,NA,2014-07-09,"Y","White",">64","NA",NA,NA,NA,NA
"CDISCPILOT01","AE","01-701-1097",8,"E10","PHARYNGOLARYNGEAL PAIN","SORE THROAT",NA,"PHARYNGOLARYNGEAL PAIN",NA,"HLT_0130",NA,"HLGT_0402",NA,"RESPIRATORY, THORACIC AND MEDIASTINAL DISORDERS",NA,"RESPIRATORY, THORACIC AND MEDIASTINAL DISORDERS",NA,"MILD","N",NA,"NONE","RECOVERED/RESOLVED","N","N","N","N","N","N","N","2014-04-23","2014-04-19","2014-04-22",109,112,2014-01-01,2014-07-09,NA,2014-07-09,2014-04-19,NA,"H",2014-04-22 23:59:59,NA,"H",2014-04-19,2014-04-22,109,112,4,"days",2014-04-19,54,"mg","MILD","NONE","Y",1,NA,"1097","2014-01-01","2014-07-09","2014-01-01","2014-07-09",NA,"2014-07-09T09:39",NA,NA,"701",68,"YEARS","M","WHITE","NOT HISPANIC OR LATINO","Xan_Lo","Xanomeline Low Dose","Xan_Lo","Xanomeline Low Dose","USA","2013-12-23",-9,"Xanomeline Low Dose","Xanomeline Low Dose",2014-01-01,"H",2014-07-09 23:59:59,"H",190,NA,"COMPLETED",NA,2014-01-01,NA,NA,NA,NA,NA,NA,2014-07-09,"Y","White",">64","NA",NA,NA,NA,NA
"CDISCPILOT01","AE","01-701-1097",9,"E11","NASAL CONGESTION","NASAL CONGESTION",NA,"NASAL CONGESTION",NA,"HLT_0118",NA,"HLGT_0549",NA,"RESPIRATORY, THORACIC AND MEDIASTINAL DISORDERS",NA,"RESPIRATORY, THORACIC AND MEDIASTINAL DISORDERS",NA,"MILD","N",NA,"NONE","RECOVERED/RESOLVED","N","N","N","N","N","N","N","2014-04-23","2014-04-19","2014-04-22",109,112,2014-01-01,2014-07-09,NA,2014-07-09,2014-04-19,NA,"H",2014-04-22 23:59:59,NA,"H",2014-04-19,2014-04-22,109,112,4,"days",2014-04-19,54,"mg","MILD","NONE","Y",1,NA,"1097","2014-01-01","2014-07-09","2014-01-01","2014-07-09",NA,"2014-07-09T09:39",NA,NA,"701",68,"YEARS","M","WHITE","NOT HISPANIC OR LATINO","Xan_Lo","Xanomeline Low Dose","Xan_Lo","Xanomeline Low Dose","USA","2013-12-23",-9,"Xanomeline Low Dose","Xanomeline Low Dose",2014-01-01,"H",2014-07-09 23:59:59,"H",190,NA,"COMPLETED",NA,2014-01-01,NA,NA,NA,NA,NA,NA,2014-07-09,"Y","White",">64","NA",NA,NA,NA,NA
"CDISCPILOT01","AE","01-701-1111",7,"E16","ARTHRALGIA","GENERALIZED JOINT PAIN",NA,"ARTHRALGIA",NA,"HLT_0375",NA,"HLGT_0610",NA,"MUSCULOSKELETAL AND CONNECTIVE TISSUE DISORDERS",NA,"MUSCULOSKELETAL AND CONNECTIVE TISSUE DISORDERS",NA,"MODERATE","N",NA,"NONE","NOT RECOVERED/NOT RESOLVED","N","N","N","N","N","N","N","2012-09-17","2012-09-13",NA,7,NA,2012-09-07,2012-09-16,NA,2012-09-17,2012-09-13,NA,"H",NA,NA,NA,2012-09-13,NA,7,NA,NA,NA,2012-09-13,54,"mg","MODERATE","NONE","Y",2,"Y","1111","2012-09-07","2012-09-17","2012-09-07","2012-09-16",NA,"2013-02-22",NA,NA,"701",81,"YEARS","F","WHITE","NOT HISPANIC OR LATINO","Xan_Lo","Xanomeline Low Dose","Xan_Lo","Xanomeline Low Dose","USA","2012-08-25",-13,"Xanomeline Low Dose","Xanomeline Low Dose",2012-09-07,"H",2012-09-16 23:59:59,"H",10,NA,"DISCONTINUED",2013-02-22,2012-09-07,NA,NA,NA,NA,NA,NA,2012-09-17,"Y","White",">64","NA",NA,NA,NA,NA
"CDISCPILOT01","AE","01-701-1111",8,"E17","CELLULITIS","CELLULITIS OF LEG",NA,"CELLULITIS",NA,"HLT_0613",NA,"HLGT_0066",NA,"INFECTIONS AND INFESTATIONS",NA,"INFECTIONS AND INFESTATIONS",NA,"MODERATE","N",NA,"NONE","NOT RECOVERED/NOT RESOLVED","N","N","N","N","N","N","N","2012-09-17","2012-09-13",NA,7,NA,2012-09-07,2012-09-16,NA,2012-09-17,2012-09-13,NA,"H",NA,NA,NA,2012-09-13,NA,7,NA,NA,NA,2012-09-13,54,"mg","MODERATE","NONE","Y",2,NA,"1111","2012-09-07","2012-09-17","2012-09-07","2012-09-16",NA,"2013-02-22",NA,NA,"701",81,"YEARS","F","WHITE","NOT HISPANIC OR LATINO","Xan_Lo","Xanomeline Low Dose","Xan_Lo","Xanomeline Low Dose","USA","2012-08-25",-13,"Xanomeline Low Dose","Xanomeline Low Dose",2012-09-07,"H",2012-09-16 23:59:59,"H",10,NA,"DISCONTINUED",2013-02-22,2012-09-07,NA,NA,NA,NA,NA,NA,2012-09-17,"Y","White",">64","NA",NA,NA,NA,NA
"CDISCPILOT01","AE","01-701-1111",6,"E18","MICTURITION URGENCY","URINARY URGENCY",NA,"MICTURITION URGENCY",NA,"HLT_0294",NA,"HLGT_0483",NA,"RENAL AND URINARY DISORDERS",NA,"RENAL AND URINARY DISORDERS",NA,"MILD","N",NA,"NONE","NOT RECOVERED/NOT RESOLVED","N","N","N","N","N","N","N","2012-09-17","2012-09-07",NA,1,NA,2012-09-07,2012-09-16,NA,2012-09-17,2012-09-07,NA,"H",NA,NA,NA,2012-09-07,NA,1,NA,NA,NA,2012-09-07,54,"mg","MILD","NONE","Y",1,NA,"1111","2012-09-07","2012-09-17","2012-09-07","2012-09-16",NA,"2013-02-22",NA,NA,"701",81,"YEARS","F","WHITE","NOT HISPANIC OR LATINO","Xan_Lo","Xanomeline Low Dose","Xan_Lo","Xanomeline Low Dose","USA","2012-08-25",-13,"Xanomeline Low Dose","Xanomeline Low Dose",2012-09-07,"H",2012-09-16 23:59:59,"H",10,NA,"DISCONTINUED",2013-02-22,2012-09-07,NA,NA,NA,NA,NA,NA,2012-09-17,"Y","White",">64","NA",NA,NA,NA,NA
"CDISCPILOT01","AE","01-701-1115",5,"E09","APPLICATION SITE ERYTHEMA","APPLICATION SITE REDNESS",NA,"APPLICATION SITE ERYTHEMA",NA,"HLT_0617",NA,"HLGT_0152",NA,"GENERAL DISORDERS AND ADMINISTRATION SITE CONDITIONS",NA,"GENERAL DISORDERS AND ADMINISTRATION SITE CONDITIONS",NA,"MODERATE","N",NA,"PROBABLE","NOT RECOVERED/NOT RESOLVED","N","N","N","N","N","N","N","2013-01-23","2012-12-02",NA,3,NA,2012-11-30,2013-01-23,NA,2013-01-23,2012-12-02,NA,"H",NA,NA,NA,2012-12-02,NA,3,NA,NA,NA,2012-12-02,54,"mg","MODERATE","PROBABLE","Y",2,"Y","1115","2012-11-30","2013-01-23","2012-11-30","2013-01-23",NA,"2013-05-20",NA,NA,"701",84,"YEARS","M","WHITE","NOT HISPANIC OR LATINO","Xan_Lo","Xanomeline Low Dose","Xan_Lo","Xanomeline Low Dose","USA","2012-11-23",-7,"Xanomeline Low Dose","Xanomeline Low Dose",2012-11-30,"H",2013-01-23 23:59:59,"H",55,NA,"DISCONTINUED",2013-05-20,2012-11-30,NA,NA,NA,NA,NA,NA,2013-01-23,"Y","White",">64","NA",NA,NA,NA,NA
"CDISCPILOT01","AE","01-701-1115",6,"E11","APPLICATION SITE PRURITUS","APPLICATION SITE ITCHING",NA,"APPLICATION SITE PRURITUS",NA,"HLT_0317",NA,"HLGT_0338",NA,"GENERAL DISORDERS AND ADMINISTRATION SITE CONDITIONS",NA,"GENERAL DISORDERS AND ADMINISTRATION SITE CONDITIONS",NA,"MODERATE","N",NA,"PROBABLE","NOT RECOVERED/NOT RESOLVED","N","N","N","N","N","N","N","2013-01-23","2012-12-02",NA,3,NA,2012-11-30,2013-01-23,NA,2013-01-23,2012-12-02,NA,"H",NA,NA,NA,2012-12-02,NA,3,NA,NA,NA,2012-12-02,54,"mg","MODERATE","PROBABLE","Y",2,NA,"1115","2012-11-30","2013-01-23","2012-11-30","2013-01-23",NA,"2013-05-20",NA,NA,"701",84,"YEARS","M","WHITE","NOT HISPANIC OR LATINO","Xan_Lo","Xanomeline Low Dose","Xan_Lo","Xanomeline Low Dose","USA","2012-11-23",-7,"Xanomeline Low Dose","Xanomeline Low Dose",2012-11-30,"H",2013-01-23 23:59:59,"H",55,NA,"DISCONTINUED",2013-05-20,2012-11-30,NA,NA,NA,NA,NA,NA,2013-01-23,"Y","White",">64","NA",NA,NA,NA,NA
"CDISCPILOT01","AE","01-701-1115",7,"E13","FATIGUE","FATIGUE",NA,"FATIGUE",NA,"HLT_0043",NA,"HLGT_0181",NA,"GENERAL DISORDERS AND ADMINISTRATION SITE CONDITIONS",NA,"GENERAL DISORDERS AND ADMINISTRATION SITE CONDITIONS",NA,"MODERATE","N",NA,"REMOTE","NOT RECOVERED/NOT RESOLVED","N","N","N","N","N","N","N","2013-01-23","2013-01-14",NA,46,NA,2012-11-30,2013-01-23,NA,2013-01-23,2013-01-14,NA,"H",NA,NA,NA,2013-01-14,NA,46,NA,NA,NA,2013-01-14,54,"mg","MODERATE","REMOTE","Y",2,NA,"1115","2012-11-30","2013-01-23","2012-11-30","2013-01-23",NA,"2013-05-20",NA,NA,"701",84,"YEARS","M","WHITE","NOT HISPANIC OR LATINO","Xan_Lo","Xanomeline Low Dose","Xan_Lo","Xanomeline Low Dose","USA","2012-11-23",-7,"Xanomeline Low Dose","Xanomeline Low Dose",2012-11-30,"H",2013-01-23 23:59:59,"H",55,NA,"DISCONTINUED",2013-05-20,2012-11-30,NA,NA,NA,NA,NA,NA,2013-01-23,"Y","White",">64","NA",NA,NA,NA,NA
"CDISCPILOT01","AE","01-701-1115",8,"E12","APPLICATION SITE IRRITATION","APPLICATION SITE BURNING",NA,"APPLICATION SITE IRRITATION",NA,"HLT_0061",NA,"HLGT_0346",NA,"GENERAL DISORDERS AND ADMINISTRATION SITE CONDITIONS",NA,"GENERAL DISORDERS AND ADMINISTRATION SITE CONDITIONS",NA,"MODERATE","N",NA,"PROBABLE","NOT RECOVERED/NOT RESOLVED","N","N","N","N","N","N","N","2013-01-23","2013-01-19",NA,51,NA,2012-11-30,2013-01-23,NA,2013-01-23,2013-01-19,NA,"H",NA,NA,NA,2013-01-19,NA,51,NA,NA,NA,2013-01-19,54,"mg","MODERATE","PROBABLE","Y",2,NA,"1115","2012-11-30","2013-01-23","2012-11-30","2013-01-23",NA,"2013-05-20",NA,NA,"701",84,"YEARS","M","WHITE","NOT HISPANIC OR LATINO","Xan_Lo","Xanomeline Low Dose","Xan_Lo","Xanomeline Low Dose","USA","2012-11-23",-7,"Xanomeline Low Dose","Xanomeline Low Dose",2012-11-30,"H",2013-01-23 23:59:59,"H",55,NA,"DISCONTINUED",2013-05-20,2012-11-30,NA,NA,NA,NA,NA,NA,2013-01-23,"Y","White",">64","NA",NA,NA,NA,NA
"CDISCPILOT01","AE","01-701-1115",9,"E14","APPLICATION SITE DERMATITIS","APPLICATION SITE RASH",NA,"APPLICATION SITE DERMATITIS",NA,"HLT_0343",NA,"HLGT_0241",NA,"GENERAL DISORDERS AND ADMINISTRATION SITE CONDITIONS",NA,"GENERAL DISORDERS AND ADMINISTRATION SITE CONDITIONS",NA,"MODERATE","N",NA,"PROBABLE","NOT RECOVERED/NOT RESOLVED","N","N","N","N","N","N","N","2013-01-23","2013-01-19",NA,51,NA,2012-11-30,2013-01-23,NA,2013-01-23,2013-01-19,NA,"H",NA,NA,NA,2013-01-19,NA,51,NA,NA,NA,2013-01-19,54,"mg","MODERATE","PROBABLE","Y",2,NA,"1115","2012-11-30","2013-01-23","2012-11-30","2013-01-23",NA,"2013-05-20",NA,NA,"701",84,"YEARS","M","WHITE","NOT HISPANIC OR LATINO","Xan_Lo","Xanomeline Low Dose","Xan_Lo","Xanomeline Low Dose","USA","2012-11-23",-7,"Xanomeline Low Dose","Xanomeline Low Dose",2012-11-30,"H",2013-01-23 23:59:59,"H",55,NA,"DISCONTINUED",2013-05-20,2012-11-30,NA,NA,NA,NA,NA,NA,2013-01-23,"Y","White",">64","NA",NA,NA,NA,NA
"CDISCPILOT01","AE","01-701-1115",1,"E09","APPLICATION SITE ERYTHEMA","APPLICATION SITE REDNESS",NA,"APPLICATION SITE ERYTHEMA",NA,"HLT_0617",NA,"HLGT_0152",NA,"GENERAL DISORDERS AND ADMINISTRATION SITE CONDITIONS",NA,"GENERAL DISORDERS AND ADMINISTRATION SITE CONDITIONS",NA,"MILD","N",NA,"PROBABLE","NOT RECOVERED/NOT RESOLVED","N","N","N","N","N","N","N","2012-12-13","2012-12-02",NA,3,NA,2012-11-30,2013-01-23,NA,2013-01-23,2012-12-02,NA,"H",NA,NA,NA,2012-12-02,NA,3,NA,NA,NA,2012-12-02,54,"mg","MILD","PROBABLE","Y",1,NA,"1115","2012-11-30","2013-01-23","2012-11-30","2013-01-23",NA,"2013-05-20",NA,NA,"701",84,"YEARS","M","WHITE","NOT HISPANIC OR LATINO","Xan_Lo","Xanomeline Low Dose","Xan_Lo","Xanomeline Low Dose","USA","2012-11-23",-7,"Xanomeline Low Dose","Xanomeline Low Dose",2012-11-30,"H",2013-01-23 23:59:59,"H",55,NA,"DISCONTINUED",2013-05-20,2012-11-30,NA,NA,NA,NA,NA,NA,2013-01-23,"Y","White",">64","NA",NA,NA,NA,NA
"CDISCPILOT01","AE","01-701-1115",2,"E11","APPLICATION SITE PRURITUS","APPLICATION SITE ITCHING",NA,"APPLICATION SITE PRURITUS",NA,"HLT_0317",NA,"HLGT_0338",NA,"GENERAL DISORDERS AND ADMINISTRATION SITE CONDITIONS",NA,"GENERAL DISORDERS AND ADMINISTRATION SITE CONDITIONS",NA,"MILD","N",NA,"PROBABLE","NOT RECOVERED/NOT RESOLVED","N","N","N","N","N","N","N","2012-12-13","2012-12-02",NA,3,NA,2012-11-30,2013-01-23,NA,2013-01-23,2012-12-02,NA,"H",NA,NA,NA,2012-12-02,NA,3,NA,NA,NA,2012-12-02,54,"mg","MILD","PROBABLE","Y",1,NA,"1115","2012-11-30","2013-01-23","2012-11-30","2013-01-23",NA,"2013-05-20",NA,NA,"701",84,"YEARS","M","WHITE","NOT HISPANIC OR LATINO","Xan_Lo","Xanomeline Low Dose","Xan_Lo","Xanomeline Low Dose","USA","2012-11-23",-7,"Xanomeline Low Dose","Xanomeline Low Dose",2012-11-30,"H",2013-01-23 23:59:59,"H",55,NA,"DISCONTINUED",2013-05-20,2012-11-30,NA,NA,NA,NA,NA,NA,2013-01-23,"Y","White",">64","NA",NA,NA,NA,NA
"CDISCPILOT01","AE","01-701-1115",3,"E10","APPLICATION SITE IRRITATION","APPLICATION SITE BURNING",NA,"APPLICATION SITE IRRITATION",NA,"HLT_0061",NA,"HLGT_0346",NA,"GENERAL DISORDERS AND ADMINISTRATION SITE CONDITIONS",NA,"GENERAL DISORDERS AND ADMINISTRATION SITE CONDITIONS",NA,"MILD","N",NA,"POSSIBLE","NOT RECOVERED/NOT RESOLVED","N","N","N","N","N","N","N","2012-12-26","2012-12-26","2012-12-26",27,27,2012-11-30,2013-01-23,NA,2013-01-23,2012-12-26,NA,"H",2012-12-26 23:59:59,NA,"H",2012-12-26,2012-12-26,27,27,1,"days",2012-12-26,54,"mg","MILD","POSSIBLE","Y",1,NA,"1115","2012-11-30","2013-01-23","2012-11-30","2013-01-23",NA,"2013-05-20",NA,NA,"701",84,"YEARS","M","WHITE","NOT HISPANIC OR LATINO","Xan_Lo","Xanomeline Low Dose","Xan_Lo","Xanomeline Low Dose","USA","2012-11-23",-7,"Xanomeline Low Dose","Xanomeline Low Dose",2012-11-30,"H",2013-01-23 23:59:59,"H",55,NA,"DISCONTINUED",2013-05-20,2012-11-30,NA,NA,NA,NA,NA,NA,2013-01-23,"Y","White",">64","NA",NA,NA,NA,NA
"CDISCPILOT01","AE","01-701-1115",4,"E10","APPLICATION SITE IRRITATION","APPLICATION SITE BURNING",NA,"APPLICATION SITE IRRITATION",NA,"HLT_0061",NA,"HLGT_0346",NA,"GENERAL DISORDERS AND ADMINISTRATION SITE CONDITIONS",NA,"GENERAL DISORDERS AND ADMINISTRATION SITE CONDITIONS",NA,"MILD","N",NA,"POSSIBLE","RECOVERED/RESOLVED","N","N","N","N","N","N","N","2012-12-28","2012-12-26","2012-12-26",27,27,2012-11-30,2013-01-23,NA,2013-01-23,2012-12-26,NA,"H",2012-12-26 23:59:59,NA,"H",2012-12-26,2012-12-26,27,27,1,"days",2012-12-26,54,"mg","MILD","POSSIBLE","Y",1,NA,"1115","2012-11-30","2013-01-23","2012-11-30","2013-01-23",NA,"2013-05-20",NA,NA,"701",84,"YEARS","M","WHITE","NOT HISPANIC OR LATINO","Xan_Lo","Xanomeline Low Dose","Xan_Lo","Xanomeline Low Dose","USA","2012-11-23",-7,"Xanomeline Low Dose","Xanomeline Low Dose",2012-11-30,"H",2013-01-23 23:59:59,"H",55,NA,"DISCONTINUED",2013-05-20,2012-11-30,NA,NA,NA,NA,NA,NA,2013-01-23,"Y","White",">64","NA",NA,NA,NA,NA
"CDISCPILOT01","AE","01-701-1130",1,"E06","URINARY TRACT INFECTION","URINARY TRACT INFECTION",NA,"URINARY TRACT INFECTION",NA,"HLT_0161",NA,"HLGT_0093",NA,"INFECTIONS AND INFESTATIONS",NA,"INFECTIONS AND INFESTATIONS",NA,"MILD","N",NA,"NONE","NOT RECOVERED/NOT RESOLVED","N","N","N","N","N","N","N","2014-03-15","2014-03-09","2014-03-16",23,30,2014-02-15,2014-08-16,NA,2014-08-16,2014-03-09,NA,"H",2014-03-16 23:59:59,NA,"H",2014-03-09,2014-03-16,23,30,8,"days",2014-03-09,0,"mg","MILD","NONE","Y",1,"Y","1130","2014-02-15","2014-08-16","2014-02-15","2014-08-16",NA,"2014-08-16T13:10",NA,NA,"701",84,"YEARS","M","WHITE","NOT HISPANIC OR LATINO","Pbo","Placebo","Pbo","Placebo","USA","2014-02-09",-6,"Placebo","Placebo",2014-02-15,"H",2014-08-16 23:59:59,"H",183,NA,"COMPLETED",NA,2014-02-15,NA,NA,NA,NA,NA,NA,2014-08-16,"Y","White",">64","NA",NA,NA,NA,NA
"CDISCPILOT01","AE","01-701-1130",2,"E07","PYREXIA","FEVER",NA,"PYREXIA",NA,"HLT_0310",NA,"HLGT_0652",NA,"GENERAL DISORDERS AND ADMINISTRATION SITE CONDITIONS",NA,"GENERAL DISORDERS AND ADMINISTRATION SITE CONDITIONS",NA,"MILD","N",NA,"NONE","RECOVERED/RESOLVED","N","N","N","N","N","N","N","2014-03-15","2014-03-09","2014-03-09",23,23,2014-02-15,2014-08-16,NA,2014-08-16,2014-03-09,NA,"H",2014-03-09 23:59:59,NA,"H",2014-03-09,2014-03-09,23,23,1,"days",2014-03-09,0,"mg","MILD","NONE","Y",1,NA,"1130","2014-02-15","2014-08-16","2014-02-15","2014-08-16",NA,"2014-08-16T13:10",NA,NA,"701",84,"YEARS","M","WHITE","NOT HISPANIC OR LATINO","Pbo","Placebo","Pbo","Placebo","USA","2014-02-09",-6,"Placebo","Placebo",2014-02-15,"H",2014-08-16 23:59:59,"H",183,NA,"COMPLETED",NA,2014-02-15,NA,NA,NA,NA,NA,NA,2014-08-16,"Y","White",">64","NA",NA,NA,NA,NA
"CDISCPILOT01","AE","01-701-1130",3,"E06","URINARY TRACT INFECTION","URINARY TRACT INFECTION",NA,"URINARY TRACT INFECTION",NA,"HLT_0161",NA,"HLGT_0093",NA,"INFECTIONS AND INFESTATIONS",NA,"INFECTIONS AND INFESTATIONS",NA,"MILD","N",NA,"NONE","RECOVERED/RESOLVED","N","N","N","N","N","N","N","2014-03-17","2014-03-09","2014-03-16",23,30,2014-02-15,2014-08-16,NA,2014-08-16,2014-03-09,NA,"H",2014-03-16 23:59:59,NA,"H",2014-03-09,2014-03-16,23,30,8,"days",2014-03-09,0,"mg","MILD","NONE","Y",1,NA,"1130","2014-02-15","2014-08-16","2014-02-15","2014-08-16",NA,"2014-08-16T13:10",NA,NA,"701",84,"YEARS","M","WHITE","NOT HISPANIC OR LATINO","Pbo","Placebo","Pbo","Placebo","USA","2014-02-09",-6,"Placebo","Placebo",2014-02-15,"H",2014-08-16 23:59:59,"H",183,NA,"COMPLETED",NA,2014-02-15,NA,NA,NA,NA,NA,NA,2014-08-16,"Y","White",">64","NA",NA,NA,NA,NA
"CDISCPILOT01","AE","01-701-1130",4,"E08","EYE SWELLING","EYES SWOLLEN",NA,"EYE SWELLING",NA,"HLT_0008",NA,"HLGT_0466",NA,"EYE DISORDERS",NA,"EYE DISORDERS",NA,"MILD","N",NA,"NONE","RECOVERED/RESOLVED","N","N","N","N","N","N","N","2014-05-16","2014-05-09","2014-05-09",84,84,2014-02-15,2014-08-16,NA,2014-08-16,2014-05-09,NA,"H",2014-05-09 23:59:59,NA,"H",2014-05-09,2014-05-09,84,84,1,"days",2014-05-09,0,"mg","MILD","NONE","Y",1,NA,"1130","2014-02-15","2014-08-16","2014-02-15","2014-08-16",NA,"2014-08-16T13:10",NA,NA,"701",84,"YEARS","M","WHITE","NOT HISPANIC OR LATINO","Pbo","Placebo","Pbo","Placebo","USA","2014-02-09",-6,"Placebo","Placebo",2014-02-15,"H",2014-08-16 23:59:59,"H",183,NA,"COMPLETED",NA,2014-02-15,NA,NA,NA,NA,NA,NA,2014-08-16,"Y","White",">64","NA",NA,NA,NA,NA
"CDISCPILOT01","AE","01-701-1130",5,"E09","EYE ALLERGY","EYE ALLERGY",NA,"EYE ALLERGY",NA,"HLT_0256",NA,"HLGT_0071",NA,"EYE DISORDERS",NA,"EYE DISORDERS",NA,"MILD","N",NA,"NONE","RECOVERED/RESOLVED","N","N","N","N","N","N","N","2014-05-16","2014-05-09","2014-05-09",84,84,2014-02-15,2014-08-16,NA,2014-08-16,2014-05-09,NA,"H",2014-05-09 23:59:59,NA,"H",2014-05-09,2014-05-09,84,84,1,"days",2014-05-09,0,"mg","MILD","NONE","Y",1,NA,"1130","2014-02-15","2014-08-16","2014-02-15","2014-08-16",NA,"2014-08-16T13:10",NA,NA,"701",84,"YEARS","M","WHITE","NOT HISPANIC OR LATINO","Pbo","Placebo","Pbo","Placebo","USA","2014-02-09",-6,"Placebo","Placebo",2014-02-15,"H",2014-08-16 23:59:59,"H",183,NA,"COMPLETED",NA,2014-02-15,NA,NA,NA,NA,NA,NA,2014-08-16,"Y","White",">64","NA",NA,NA,NA,NA
"CDISCPILOT01","AE","01-701-1130",6,"E10","EYE PRURITUS","EYE ITCHING",NA,"EYE PRURITUS",NA,"HLT_0523",NA,"HLGT_0240",NA,"EYE DISORDERS",NA,"EYE DISORDERS",NA,"MILD","N",NA,"REMOTE","NOT RECOVERED/NOT RESOLVED","N","N","N","N","N","N","N","2014-06-07","2014-05-22",NA,97,NA,2014-02-15,2014-08-16,NA,2014-08-16,2014-05-22,NA,"H",NA,NA,NA,2014-05-22,NA,97,NA,NA,NA,2014-05-22,0,"mg","MILD","REMOTE","Y",1,NA,"1130","2014-02-15","2014-08-16","2014-02-15","2014-08-16",NA,"2014-08-16T13:10",NA,NA,"701",84,"YEARS","M","WHITE","NOT HISPANIC OR LATINO","Pbo","Placebo","Pbo","Placebo","USA","2014-02-09",-6,"Placebo","Placebo",2014-02-15,"H",2014-08-16 23:59:59,"H",183,NA,"COMPLETED",NA,2014-02-15,NA,NA,NA,NA,NA,NA,2014-08-16,"Y","White",">64","NA",NA,NA,NA,NA
"CDISCPILOT01","AE","01-701-1130",7,"E11","PRURITUS","ITCHING BOTH HANDS",NA,"PRURITUS",NA,"HLT_0778",NA,"HLGT_0695",NA,"SKIN AND SUBCUTANEOUS TISSUE DISORDERS",NA,"SKIN AND SUBCUTANEOUS TISSUE DISORDERS",NA,"MILD","N",NA,"REMOTE","NOT RECOVERED/NOT RESOLVED","N","N","N","N","N","N","N","2014-06-07","2014-05-22",NA,97,NA,2014-02-15,2014-08-16,NA,2014-08-16,2014-05-22,NA,"H",NA,NA,NA,2014-05-22,NA,97,NA,NA,NA,2014-05-22,0,"mg","MILD","REMOTE","Y",1,NA,"1130","2014-02-15","2014-08-16","2014-02-15","2014-08-16",NA,"2014-08-16T13:10",NA,NA,"701",84,"YEARS","M","WHITE","NOT HISPANIC OR LATINO","Pbo","Placebo","Pbo","Placebo","USA","2014-02-09",-6,"Placebo","Placebo",2014-02-15,"H",2014-08-16 23:59:59,"H",183,NA,"COMPLETED",NA,2014-02-15,NA,NA,NA,NA,NA,NA,2014-08-16,"Y","White",">64","NA",NA,NA,NA,NA
"CDISCPILOT01","AE","01-701-1130",8,"E12","NASAL CONGESTION","NASAL CONGESTION",NA,"NASAL CONGESTION",NA,"HLT_0118",NA,"HLGT_0549",NA,"RESPIRATORY, THORACIC AND MEDIASTINAL DISORDERS",NA,"RESPIRATORY, THORACIC AND MEDIASTINAL DISORDERS",NA,"MILD","N",NA,"REMOTE","NOT RECOVERED/NOT RESOLVED","N","N","N","N","N","N","N","2014-06-07","2014-05-22",NA,97,NA,2014-02-15,2014-08-16,NA,2014-08-16,2014-05-22,NA,"H",NA,NA,NA,2014-05-22,NA,97,NA,NA,NA,2014-05-22,0,"mg","MILD","REMOTE","Y",1,NA,"1130","2014-02-15","2014-08-16","2014-02-15","2014-08-16",NA,"2014-08-16T13:10",NA,NA,"701",84,"YEARS","M","WHITE","NOT HISPANIC OR LATINO","Pbo","Placebo","Pbo","Placebo","USA","2014-02-09",-6,"Placebo","Placebo",2014-02-15,"H",2014-08-16 23:59:59,"H",183,NA,"COMPLETED",NA,2014-02-15,NA,NA,NA,NA,NA,NA,2014-08-16,"Y","White",">64","NA",NA,NA,NA,NA
"CDISCPILOT01","AE","01-701-1133",3,"E04","APPLICATION SITE ERYTHEMA","APPLICATION SITE REDNESS",NA,"APPLICATION SITE ERYTHEMA",NA,"HLT_0617",NA,"HLGT_0152",NA,"GENERAL DISORDERS AND ADMINISTRATION SITE CONDITIONS",NA,"GENERAL DISORDERS AND ADMINISTRATION SITE CONDITIONS",NA,"MODERATE","N",NA,"PROBABLE","NOT RECOVERED/NOT RESOLVED","N","N","N","N","N","N","N","2013-02-18","2012-12-27",NA,61,NA,2012-10-28,2013-04-28,NA,2013-04-29,2012-12-27,NA,"H",NA,NA,NA,2012-12-27,NA,61,NA,NA,NA,2012-11-12,NA,NA,"MODERATE","PROBABLE","Y",2,"Y","1133","2012-10-28","2013-04-29","2012-10-28","2013-04-28",NA,"2013-04-29T10:13",NA,NA,"701",81,"YEARS","F","WHITE","NOT HISPANIC OR LATINO","Xan_Hi","Xanomeline High Dose","Xan_Hi","Xanomeline High Dose","USA","2012-10-23",-5,"Xanomeline High Dose","Xanomeline High Dose",2012-10-28,"H",2013-04-28 23:59:59,"H",183,NA,"COMPLETED",NA,2012-10-28,NA,NA,NA,NA,NA,NA,2013-04-29,"Y","White",">64","NA",NA,NA,NA,NA
"CDISCPILOT01","AE","01-701-1133",4,"E05","APPLICATION SITE PRURITUS","APPLICATION SITE ITCHING",NA,"APPLICATION SITE PRURITUS",NA,"HLT_0317",NA,"HLGT_0338",NA,"GENERAL DISORDERS AND ADMINISTRATION SITE CONDITIONS",NA,"GENERAL DISORDERS AND ADMINISTRATION SITE CONDITIONS",NA,"MODERATE","N",NA,"PROBABLE","NOT RECOVERED/NOT RESOLVED","N","N","N","N","N","N","N","2013-02-18","2012-12-27",NA,61,NA,2012-10-28,2013-04-28,NA,2013-04-29,2012-12-27,NA,"H",NA,NA,NA,2012-12-27,NA,61,NA,NA,NA,2012-11-12,NA,NA,"MODERATE","PROBABLE","Y",2,NA,"1133","2012-10-28","2013-04-29","2012-10-28","2013-04-28",NA,"2013-04-29T10:13",NA,NA,"701",81,"YEARS","F","WHITE","NOT HISPANIC OR LATINO","Xan_Hi","Xanomeline High Dose","Xan_Hi","Xanomeline High Dose","USA","2012-10-23",-5,"Xanomeline High Dose","Xanomeline High Dose",2012-10-28,"H",2013-04-28 23:59:59,"H",183,NA,"COMPLETED",NA,2012-10-28,NA,NA,NA,NA,NA,NA,2013-04-29,"Y","White",">64","NA",NA,NA,NA,NA
"CDISCPILOT01","AE","01-701-1133",1,"E04","APPLICATION SITE ERYTHEMA","APPLICATION SITE REDNESS",NA,"APPLICATION SITE ERYTHEMA",NA,"HLT_0617",NA,"HLGT_0152",NA,"GENERAL DISORDERS AND ADMINISTRATION SITE CONDITIONS",NA,"GENERAL DISORDERS AND ADMINISTRATION SITE CONDITIONS",NA,"MILD","N",NA,"PROBABLE","NOT RECOVERED/NOT RESOLVED","N","N","N","N","N","N","N","2013-01-22","2012-12-27",NA,61,NA,2012-10-28,2013-04-28,NA,2013-04-29,2012-12-27,NA,"H",NA,NA,NA,2012-12-27,NA,61,NA,NA,NA,2012-11-12,NA,NA,"MILD","PROBABLE","Y",1,NA,"1133","2012-10-28","2013-04-29","2012-10-28","2013-04-28",NA,"2013-04-29T10:13",NA,NA,"701",81,"YEARS","F","WHITE","NOT HISPANIC OR LATINO","Xan_Hi","Xanomeline High Dose","Xan_Hi","Xanomeline High Dose","USA","2012-10-23",-5,"Xanomeline High Dose","Xanomeline High Dose",2012-10-28,"H",2013-04-28 23:59:59,"H",183,NA,"COMPLETED",NA,2012-10-28,NA,NA,NA,NA,NA,NA,2013-04-29,"Y","White",">64","NA",NA,NA,NA,NA
"CDISCPILOT01","AE","01-701-1133",2,"E05","APPLICATION SITE PRURITUS","APPLICATION SITE ITCHING",NA,"APPLICATION SITE PRURITUS",NA,"HLT_0317",NA,"HLGT_0338",NA,"GENERAL DISORDERS AND ADMINISTRATION SITE CONDITIONS",NA,"GENERAL DISORDERS AND ADMINISTRATION SITE CONDITIONS",NA,"MILD","N",NA,"PROBABLE","NOT RECOVERED/NOT RESOLVED","N","N","N","N","N","N","N","2013-01-22","2012-12-27",NA,61,NA,2012-10-28,2013-04-28,NA,2013-04-29,2012-12-27,NA,"H",NA,NA,NA,2012-12-27,NA,61,NA,NA,NA,2012-11-12,NA,NA,"MILD","PROBABLE","Y",1,NA,"1133","2012-10-28","2013-04-29","2012-10-28","2013-04-28",NA,"2013-04-29T10:13",NA,NA,"701",81,"YEARS","F","WHITE","NOT HISPANIC OR LATINO","Xan_Hi","Xanomeline High Dose","Xan_Hi","Xanomeline High Dose","USA","2012-10-23",-5,"Xanomeline High Dose","Xanomeline High Dose",2012-10-28,"H",2013-04-28 23:59:59,"H",183,NA,"COMPLETED",NA,2012-10-28,NA,NA,NA,NA,NA,NA,2013-04-29,"Y","White",">64","NA",NA,NA,NA,NA
"CDISCPILOT01","AE","01-701-1146",7,"E12","APPLICATION SITE ERYTHEMA","APPLICATION SITE ERYTHEMA",NA,"APPLICATION SITE ERYTHEMA",NA,"HLT_0617",NA,"HLGT_0152",NA,"GENERAL DISORDERS AND ADMINISTRATION SITE CONDITIONS",NA,"GENERAL DISORDERS AND ADMINISTRATION SITE CONDITIONS",NA,"MODERATE","N",NA,"PROBABLE","NOT RECOVERED/NOT RESOLVED","N","N","N","N","N","N","N","2013-06-30","2013-06-10",NA,22,NA,2013-05-20,2013-06-26,NA,2013-06-30,2013-06-10,NA,"H",NA,NA,NA,2013-06-10,NA,22,NA,NA,NA,2013-06-03,NA,NA,"MODERATE","PROBABLE","Y",2,"Y","1146","2013-05-20","2013-06-30","2013-05-20","2013-06-26",NA,"2013-07-15",NA,NA,"701",75,"YEARS","F","WHITE","NOT HISPANIC OR LATINO","Xan_Hi","Xanomeline High Dose","Xan_Hi","Xanomeline High Dose","USA","2013-05-07",-13,"Xanomeline High Dose","Xanomeline High Dose",2013-05-20,"H",2013-06-26 23:59:59,"H",38,NA,"DISCONTINUED",NA,2013-05-20,NA,NA,NA,NA,NA,NA,2013-06-30,"Y","White",">64","NA",NA,NA,NA,NA
"CDISCPILOT01","AE","01-701-1146",8,"E13","APPLICATION SITE PRURITUS","APPLICATION SITE ITCHING",NA,"APPLICATION SITE PRURITUS",NA,"HLT_0317",NA,"HLGT_0338",NA,"GENERAL DISORDERS AND ADMINISTRATION SITE CONDITIONS",NA,"GENERAL DISORDERS AND ADMINISTRATION SITE CONDITIONS",NA,"MODERATE","N",NA,"PROBABLE","NOT RECOVERED/NOT RESOLVED","N","N","N","N","N","N","N","2013-06-30","2013-06-10",NA,22,NA,2013-05-20,2013-06-26,NA,2013-06-30,2013-06-10,NA,"H",NA,NA,NA,2013-06-10,NA,22,NA,NA,NA,2013-06-03,NA,NA,"MODERATE","PROBABLE","Y",2,NA,"1146","2013-05-20","2013-06-30","2013-05-20","2013-06-26",NA,"2013-07-15",NA,NA,"701",75,"YEARS","F","WHITE","NOT HISPANIC OR LATINO","Xan_Hi","Xanomeline High Dose","Xan_Hi","Xanomeline High Dose","USA","2013-05-07",-13,"Xanomeline High Dose","Xanomeline High Dose",2013-05-20,"H",2013-06-26 23:59:59,"H",38,NA,"DISCONTINUED",NA,2013-05-20,NA,NA,NA,NA,NA,NA,2013-06-30,"Y","White",">64","NA",NA,NA,NA,NA
"CDISCPILOT01","AE","01-701-1146",9,"E14","APPLICATION SITE PAIN","APPLICATION SITE PAIN",NA,"APPLICATION SITE PAIN",NA,"HLT_0342",NA,"HLGT_0085",NA,"GENERAL DISORDERS AND ADMINISTRATION SITE CONDITIONS",NA,"GENERAL DISORDERS AND ADMINISTRATION SITE CONDITIONS",NA,"MODERATE","N",NA,"PROBABLE","NOT RECOVERED/NOT RESOLVED","N","N","N","N","N","N","N","2013-06-30","2013-06-22",NA,34,NA,2013-05-20,2013-06-26,NA,2013-06-30,2013-06-22,NA,"H",NA,NA,NA,2013-06-22,NA,34,NA,NA,NA,2013-06-03,NA,NA,"MODERATE","PROBABLE","Y",2,NA,"1146","2013-05-20","2013-06-30","2013-05-20","2013-06-26",NA,"2013-07-15",NA,NA,"701",75,"YEARS","F","WHITE","NOT HISPANIC OR LATINO","Xan_Hi","Xanomeline High Dose","Xan_Hi","Xanomeline High Dose","USA","2013-05-07",-13,"Xanomeline High Dose","Xanomeline High Dose",2013-05-20,"H",2013-06-26 23:59:59,"H",38,NA,"DISCONTINUED",NA,2013-05-20,NA,NA,NA,NA,NA,NA,2013-06-30,"Y","White",">64","NA",NA,NA,NA,NA
"CDISCPILOT01","AE","01-701-1146",10,"E15","APPLICATION SITE VESICLES","APPLICATION SITE VESICLES",NA,"APPLICATION SITE VESICLES",NA,"HLT_0180",NA,"HLGT_0576",NA,"GENERAL DISORDERS AND ADMINISTRATION SITE CONDITIONS",NA,"GENERAL DISORDERS AND ADMINISTRATION SITE CONDITIONS",NA,"MODERATE","N",NA,"PROBABLE","NOT RECOVERED/NOT RESOLVED","N","N","N","N","N","N","N","2013-06-30","2013-06-26",NA,38,NA,2013-05-20,2013-06-26,NA,2013-06-30,2013-06-26,NA,"H",NA,NA,NA,2013-06-26,NA,38,NA,NA,NA,2013-06-03,NA,NA,"MODERATE","PROBABLE","Y",2,NA,"1146","2013-05-20","2013-06-30","2013-05-20","2013-06-26",NA,"2013-07-15",NA,NA,"701",75,"YEARS","F","WHITE","NOT HISPANIC OR LATINO","Xan_Hi","Xanomeline High Dose","Xan_Hi","Xanomeline High Dose","USA","2013-05-07",-13,"Xanomeline High Dose","Xanomeline High Dose",2013-05-20,"H",2013-06-26 23:59:59,"H",38,NA,"DISCONTINUED",NA,2013-05-20,NA,NA,NA,NA,NA,NA,2013-06-30,"Y","White",">64","NA",NA,NA,NA,NA
"CDISCPILOT01","AE","01-701-1146",11,"E16","APPLICATION SITE IRRITATION","APPLICATION SITE BURNING",NA,"APPLICATION SITE IRRITATION",NA,"HLT_0061",NA,"HLGT_0346",NA,"GENERAL DISORDERS AND ADMINISTRATION SITE CONDITIONS",NA,"GENERAL DISORDERS AND ADMINISTRATION SITE CONDITIONS",NA,"MODERATE","N",NA,"PROBABLE","NOT RECOVERED/NOT RESOLVED","N","N","N","N","N","N","N","2013-06-30","2013-06-26",NA,38,NA,2013-05-20,2013-06-26,NA,2013-06-30,2013-06-26,NA,"H",NA,NA,NA,2013-06-26,NA,38,NA,NA,NA,2013-06-03,NA,NA,"MODERATE","PROBABLE","Y",2,NA,"1146","2013-05-20","2013-06-30","2013-05-20","2013-06-26",NA,"2013-07-15",NA,NA,"701",75,"YEARS","F","WHITE","NOT HISPANIC OR LATINO","Xan_Hi","Xanomeline High Dose","Xan_Hi","Xanomeline High Dose","USA","2013-05-07",-13,"Xanomeline High Dose","Xanomeline High Dose",2013-05-20,"H",2013-06-26 23:59:59,"H",38,NA,"DISCONTINUED",NA,2013-05-20,NA,NA,NA,NA,NA,NA,2013-06-30,"Y","White",">64","NA",NA,NA,NA,NA
"CDISCPILOT01","AE","01-701-1146",3,"E10","APPLICATION SITE IRRITATION","APPLICATION SITE IRRITATION",NA,"APPLICATION SITE IRRITATION",NA,"HLT_0061",NA,"HLGT_0346",NA,"GENERAL DISORDERS AND ADMINISTRATION SITE CONDITIONS",NA,"GENERAL DISORDERS AND ADMINISTRATION SITE CONDITIONS",NA,"MILD","N",NA,"PROBABLE","RECOVERED/RESOLVED","N","N","N","N","N","N","N","2013-06-03","2013-06-01","2013-06-02",13,14,2013-05-20,2013-06-26,NA,2013-06-30,2013-06-01,NA,"H",2013-06-02 23:59:59,NA,"H",2013-06-01,2013-06-02,13,14,2,"days",2013-06-01,54,"mg","MILD","PROBABLE","Y",1,NA,"1146","2013-05-20","2013-06-30","2013-05-20","2013-06-26",NA,"2013-07-15",NA,NA,"701",75,"YEARS","F","WHITE","NOT HISPANIC OR LATINO","Xan_Hi","Xanomeline High Dose","Xan_Hi","Xanomeline High Dose","USA","2013-05-07",-13,"Xanomeline High Dose","Xanomeline High Dose",2013-05-20,"H",2013-06-26 23:59:59,"H",38,NA,"DISCONTINUED",NA,2013-05-20,NA,NA,NA,NA,NA,NA,2013-06-30,"Y","White",">64","NA",NA,NA,NA,NA
"CDISCPILOT01","AE","01-701-1146",4,"E11","FATIGUE","FATIGUE",NA,"FATIGUE",NA,"HLT_0043",NA,"HLGT_0181",NA,"GENERAL DISORDERS AND ADMINISTRATION SITE CONDITIONS",NA,"GENERAL DISORDERS AND ADMINISTRATION SITE CONDITIONS",NA,"MILD","N",NA,"POSSIBLE","NOT RECOVERED/NOT RESOLVED","N","N","N","N","N","N","N","2013-06-03","2013-06-03",NA,15,NA,2013-05-20,2013-06-26,NA,2013-06-30,2013-06-03,NA,"H",NA,NA,NA,2013-06-03,NA,15,NA,NA,NA,2013-06-03,54,"mg","MILD","POSSIBLE","Y",1,NA,"1146","2013-05-20","2013-06-30","2013-05-20","2013-06-26",NA,"2013-07-15",NA,NA,"701",75,"YEARS","F","WHITE","NOT HISPANIC OR LATINO","Xan_Hi","Xanomeline High Dose","Xan_Hi","Xanomeline High Dose","USA","2013-05-07",-13,"Xanomeline High Dose","Xanomeline High Dose",2013-05-20,"H",2013-06-26 23:59:59,"H",38,NA,"DISCONTINUED",NA,2013-05-20,NA,NA,NA,NA,NA,NA,2013-06-30,"Y","White",">64","NA",NA,NA,NA,NA
"CDISCPILOT01","AE","01-701-1146",5,"E12","APPLICATION SITE ERYTHEMA","APPLICATION SITE ERYTHEMA",NA,"APPLICATION SITE ERYTHEMA",NA,"HLT_0617",NA,"HLGT_0152",NA,"GENERAL DISORDERS AND ADMINISTRATION SITE CONDITIONS",NA,"GENERAL DISORDERS AND ADMINISTRATION SITE CONDITIONS",NA,"MILD","N",NA,"PROBABLE","NOT RECOVERED/NOT RESOLVED","N","N","N","N","N","N","N","2013-06-16","2013-06-10",NA,22,NA,2013-05-20,2013-06-26,NA,2013-06-30,2013-06-10,NA,"H",NA,NA,NA,2013-06-10,NA,22,NA,NA,NA,2013-06-03,NA,NA,"MILD","PROBABLE","Y",1,NA,"1146","2013-05-20","2013-06-30","2013-05-20","2013-06-26",NA,"2013-07-15",NA,NA,"701",75,"YEARS","F","WHITE","NOT HISPANIC OR LATINO","Xan_Hi","Xanomeline High Dose","Xan_Hi","Xanomeline High Dose","USA","2013-05-07",-13,"Xanomeline High Dose","Xanomeline High Dose",2013-05-20,"H",2013-06-26 23:59:59,"H",38,NA,"DISCONTINUED",NA,2013-05-20,NA,NA,NA,NA,NA,NA,2013-06-30,"Y","White",">64","NA",NA,NA,NA,NA
"CDISCPILOT01","AE","01-701-1146",6,"E13","APPLICATION SITE PRURITUS","APPLICATION SITE ITCHING",NA,"APPLICATION SITE PRURITUS",NA,"HLT_0317",NA,"HLGT_0338",NA,"GENERAL DISORDERS AND ADMINISTRATION SITE CONDITIONS",NA,"GENERAL DISORDERS AND ADMINISTRATION SITE CONDITIONS",NA,"MILD","N",NA,"PROBABLE","NOT RECOVERED/NOT RESOLVED","N","N","N","N","N","N","N","2013-06-16","2013-06-10",NA,22,NA,2013-05-20,2013-06-26,NA,2013-06-30,2013-06-10,NA,"H",NA,NA,NA,2013-06-10,NA,22,NA,NA,NA,2013-06-03,NA,NA,"MILD","PROBABLE","Y",1,NA,"1146","2013-05-20","2013-06-30","2013-05-20","2013-06-26",NA,"2013-07-15",NA,NA,"701",75,"YEARS","F","WHITE","NOT HISPANIC OR LATINO","Xan_Hi","Xanomeline High Dose","Xan_Hi","Xanomeline High Dose","USA","2013-05-07",-13,"Xanomeline High Dose","Xanomeline High Dose",2013-05-20,"H",2013-06-26 23:59:59,"H",38,NA,"DISCONTINUED",NA,2013-05-20,NA,NA,NA,NA,NA,NA,2013-06-30,"Y","White",">64","NA",NA,NA,NA,NA
"CDISCPILOT01","AE","01-701-1148",3,"E23","LOWER RESPIRATORY TRACT INFECTION","CHEST COLD",NA,"LOWER RESPIRATORY TRACT INFECTION",NA,"HLT_0052",NA,"HLGT_0217",NA,"INFECTIONS AND INFESTATIONS",NA,"INFECTIONS AND INFESTATIONS",NA,"MODERATE","N",NA,"NONE","NOT RECOVERED/NOT RESOLVED","N","N","N","N","N","N","N","2013-10-18","2013-10-12","2013-11-10",51,80,2013-08-23,2014-02-20,NA,2014-02-20,2013-10-12,NA,"H",2013-11-10 23:59:59,NA,"H",2013-10-12,2013-11-10,51,80,30,"days",2013-09-05,NA,NA,"MODERATE","NONE","Y",2,"Y","1148","2013-08-23","2014-02-20","2013-08-23","2014-02-20",NA,"2014-02-20T15:07",NA,NA,"701",57,"YEARS","M","WHITE","NOT HISPANIC OR LATINO","Xan_Hi","Xanomeline High Dose","Xan_Hi","Xanomeline High Dose","USA","2013-08-14",-9,"Xanomeline High Dose","Xanomeline High Dose",2013-08-23,"H",2014-02-20 23:59:59,"H",182,NA,"COMPLETED",NA,2013-08-23,NA,NA,NA,NA,NA,NA,2014-02-20,"Y","White","18-64","NA",NA,NA,NA,NA
"CDISCPILOT01","AE","01-701-1148",4,"E23","LOWER RESPIRATORY TRACT INFECTION","CHEST COLD",NA,"LOWER RESPIRATORY TRACT INFECTION",NA,"HLT_0052",NA,"HLGT_0217",NA,"INFECTIONS AND INFESTATIONS",NA,"INFECTIONS AND INFESTATIONS",NA,"MODERATE","N",NA,"NONE","RECOVERED/RESOLVED","N","N","N","N","N","N","N","2013-11-17","2013-10-12","2013-11-10",51,80,2013-08-23,2014-02-20,NA,2014-02-20,2013-10-12,NA,"H",2013-11-10 23:59:59,NA,"H",2013-10-12,2013-11-10,51,80,30,"days",2013-09-05,NA,NA,"MODERATE","NONE","Y",2,NA,"1148","2013-08-23","2014-02-20","2013-08-23","2014-02-20",NA,"2014-02-20T15:07",NA,NA,"701",57,"YEARS","M","WHITE","NOT HISPANIC OR LATINO","Xan_Hi","Xanomeline High Dose","Xan_Hi","Xanomeline High Dose","USA","2013-08-14",-9,"Xanomeline High Dose","Xanomeline High Dose",2013-08-23,"H",2014-02-20 23:59:59,"H",182,NA,"COMPLETED",NA,2013-08-23,NA,NA,NA,NA,NA,NA,2014-02-20,"Y","White","18-64","NA",NA,NA,NA,NA
"CDISCPILOT01","AE","01-701-1148",5,"E24","FLANK PAIN","FLANK PAIN",NA,"FLANK PAIN",NA,"HLT_0484",NA,"HLGT_0543",NA,"MUSCULOSKELETAL AND CONNECTIVE TISSUE DISORDERS",NA,"MUSCULOSKELETAL AND CONNECTIVE TISSUE DISORDERS",NA,"MODERATE","N",NA,"NONE","RECOVERED/RESOLVED","N","N","N","N","N","N","N","2014-01-10","2013-12-15","2013-12-17",115,117,2013-08-23,2014-02-20,NA,2014-02-20,2013-12-15,NA,"H",2013-12-17 23:59:59,NA,"H",2013-12-15,2013-12-17,115,117,3,"days",2013-09-05,NA,NA,"MODERATE","NONE","Y",2,NA,"1148","2013-08-23","2014-02-20","2013-08-23","2014-02-20",NA,"2014-02-20T15:07",NA,NA,"701",57,"YEARS","M","WHITE","NOT HISPANIC OR LATINO","Xan_Hi","Xanomeline High Dose","Xan_Hi","Xanomeline High Dose","USA","2013-08-14",-9,"Xanomeline High Dose","Xanomeline High Dose",2013-08-23,"H",2014-02-20 23:59:59,"H",182,NA,"COMPLETED",NA,2013-08-23,NA,NA,NA,NA,NA,NA,2014-02-20,"Y","White","18-64","NA",NA,NA,NA,NA
"CDISCPILOT01","AE","01-701-1148",6,"E25","CALCULUS URETHRAL","URETHRAL CALCULUS",NA,"CALCULUS URETHRAL",NA,"HLT_0550",NA,"HLGT_0414",NA,"RENAL AND URINARY DISORDERS",NA,"RENAL AND URINARY DISORDERS",NA,"MODERATE","N",NA,"NONE","RECOVERED/RESOLVED","N","N","N","N","N","N","N","2014-01-10","2013-12-17","2013-12-17",117,117,2013-08-23,2014-02-20,NA,2014-02-20,2013-12-17,NA,"H",2013-12-17 23:59:59,NA,"H",2013-12-17,2013-12-17,117,117,1,"days",2013-09-05,NA,NA,"MODERATE","NONE","Y",2,NA,"1148","2013-08-23","2014-02-20","2013-08-23","2014-02-20",NA,"2014-02-20T15:07",NA,NA,"701",57,"YEARS","M","WHITE","NOT HISPANIC OR LATINO","Xan_Hi","Xanomeline High Dose","Xan_Hi","Xanomeline High Dose","USA","2013-08-14",-9,"Xanomeline High Dose","Xanomeline High Dose",2013-08-23,"H",2014-02-20 23:59:59,"H",182,NA,"COMPLETED",NA,2013-08-23,NA,NA,NA,NA,NA,NA,2014-02-20,"Y","White","18-64","NA",NA,NA,NA,NA
"CDISCPILOT01","AE","01-701-1148",1,"E20","APPLICATION SITE ERYTHEMA","APPLICATION SITE REDNESS",NA,"APPLICATION SITE ERYTHEMA",NA,"HLT_0617",NA,"HLGT_0152",NA,"GENERAL DISORDERS AND ADMINISTRATION SITE CONDITIONS",NA,"GENERAL DISORDERS AND ADMINISTRATION SITE CONDITIONS",NA,"MILD","N",NA,"PROBABLE","NOT RECOVERED/NOT RESOLVED","N","N","N","N","N","N","N","2013-09-05","2013-08-25",NA,3,NA,2013-08-23,2014-02-20,NA,2014-02-20,2013-08-25,NA,"H",NA,NA,NA,2013-08-25,NA,3,NA,NA,NA,2013-08-25,54,"mg","MILD","PROBABLE","Y",1,NA,"1148","2013-08-23","2014-02-20","2013-08-23","2014-02-20",NA,"2014-02-20T15:07",NA,NA,"701",57,"YEARS","M","WHITE","NOT HISPANIC OR LATINO","Xan_Hi","Xanomeline High Dose","Xan_Hi","Xanomeline High Dose","USA","2013-08-14",-9,"Xanomeline High Dose","Xanomeline High Dose",2013-08-23,"H",2014-02-20 23:59:59,"H",182,NA,"COMPLETED",NA,2013-08-23,NA,NA,NA,NA,NA,NA,2014-02-20,"Y","White","18-64","NA",NA,NA,NA,NA
"CDISCPILOT01","AE","01-701-1148",2,"E21","APPLICATION SITE PRURITUS","APPLICATION SITE ITCHING",NA,"APPLICATION SITE PRURITUS",NA,"HLT_0317",NA,"HLGT_0338",NA,"GENERAL DISORDERS AND ADMINISTRATION SITE CONDITIONS",NA,"GENERAL DISORDERS AND ADMINISTRATION SITE CONDITIONS",NA,"MILD","N",NA,"PROBABLE","NOT RECOVERED/NOT RESOLVED","N","N","N","N","N","N","N","2013-09-05","2013-08-25",NA,3,NA,2013-08-23,2014-02-20,NA,2014-02-20,2013-08-25,NA,"H",NA,NA,NA,2013-08-25,NA,3,NA,NA,NA,2013-08-25,54,"mg","MILD","PROBABLE","Y",1,NA,"1148","2013-08-23","2014-02-20","2013-08-23","2014-02-20",NA,"2014-02-20T15:07",NA,NA,"701",57,"YEARS","M","WHITE","NOT HISPANIC OR LATINO","Xan_Hi","Xanomeline High Dose","Xan_Hi","Xanomeline High Dose","USA","2013-08-14",-9,"Xanomeline High Dose","Xanomeline High Dose",2013-08-23,"H",2014-02-20 23:59:59,"H",182,NA,"COMPLETED",NA,2013-08-23,NA,NA,NA,NA,NA,NA,2014-02-20,"Y","White","18-64","NA",NA,NA,NA,NA
"CDISCPILOT01","AE","01-701-1148",7,"E28","EPISTAXIS","NOSE BLEED",NA,"EPISTAXIS",NA,"HLT_0386",NA,"HLGT_0577",NA,"RESPIRATORY, THORACIC AND MEDIASTINAL DISORDERS",NA,"RESPIRATORY, THORACIC AND MEDIASTINAL DISORDERS",NA,"MILD","N",NA,"NONE","RECOVERED/RESOLVED","N","N","N","N","N","N","N","2014-01-10","2014-01-03","2014-01-03",134,134,2013-08-23,2014-02-20,NA,2014-02-20,2014-01-03,NA,"H",2014-01-03 23:59:59,NA,"H",2014-01-03,2014-01-03,134,134,1,"days",2013-09-05,NA,NA,"MILD","NONE","Y",1,NA,"1148","2013-08-23","2014-02-20","2013-08-23","2014-02-20",NA,"2014-02-20T15:07",NA,NA,"701",57,"YEARS","M","WHITE","NOT HISPANIC OR LATINO","Xan_Hi","Xanomeline High Dose","Xan_Hi","Xanomeline High Dose","USA","2013-08-14",-9,"Xanomeline High Dose","Xanomeline High Dose",2013-08-23,"H",2014-02-20 23:59:59,"H",182,NA,"COMPLETED",NA,2013-08-23,NA,NA,NA,NA,NA,NA,2014-02-20,"Y","White","18-64","NA",NA,NA,NA,NA
"CDISCPILOT01","AE","01-701-1148",10,"E27","ACTINIC KERATOSIS","ACTINIC KERATOSIS",NA,"ACTINIC KERATOSIS",NA,"HLT_0609",NA,"HLGT_0490",NA,"SKIN AND SUBCUTANEOUS TISSUE DISORDERS",NA,"SKIN AND SUBCUTANEOUS TISSUE DISORDERS",NA,"MILD","N",NA,"NONE","NOT RECOVERED/NOT RESOLVED","N","N","N","N","N","N","N","2014-02-20","2014-02-12",NA,174,NA,2013-08-23,2014-02-20,NA,2014-02-20,2014-02-12,NA,"H",NA,NA,NA,2014-02-12,NA,174,NA,NA,NA,2014-02-12,54,"mg","MILD","NONE","Y",1,NA,"1148","2013-08-23","2014-02-20","2013-08-23","2014-02-20",NA,"2014-02-20T15:07",NA,NA,"701",57,"YEARS","M","WHITE","NOT HISPANIC OR LATINO","Xan_Hi","Xanomeline High Dose","Xan_Hi","Xanomeline High Dose","USA","2013-08-14",-9,"Xanomeline High Dose","Xanomeline High Dose",2013-08-23,"H",2014-02-20 23:59:59,"H",182,NA,"COMPLETED",NA,2013-08-23,NA,NA,NA,NA,NA,NA,2014-02-20,"Y","White","18-64","NA",NA,NA,NA,NA
"CDISCPILOT01","AE","01-701-1153",1,"E06","INCREASED APPETITE","INCREASED APPETITE",NA,"INCREASED APPETITE",NA,"HLT_0566",NA,"HLGT_0769",NA,"METABOLISM AND NUTRITION DISORDERS",NA,"METABOLISM AND NUTRITION DISORDERS",NA,"MILD","N",NA,"POSSIBLE","NOT RECOVERED/NOT RESOLVED","N","N","N","N","N","N","N","2013-10-19","2013-10-13","2013-11-06",21,45,2013-09-23,2014-03-16,NA,2014-04-01,2013-10-13,NA,"H",2013-11-06 23:59:59,NA,"H",2013-10-13,2013-11-06,21,45,25,"days",2013-10-13,0,"mg","MILD","POSSIBLE","Y",1,"Y","1153","2013-09-23","2014-04-01","2013-09-23","2014-03-16",NA,"2014-04-01T14:25",NA,NA,"701",79,"YEARS","F","WHITE","NOT HISPANIC OR LATINO","Pbo","Placebo","Pbo","Placebo","USA","2013-09-06",-17,"Placebo","Placebo",2013-09-23,"H",2014-03-16 23:59:59,"H",175,NA,"COMPLETED",NA,2013-09-23,NA,NA,NA,NA,NA,NA,2014-04-01,"Y","White",">64","NA",NA,NA,NA,NA
"CDISCPILOT01","AE","01-701-1153",2,"E06","INCREASED APPETITE","INCREASED APPETITE",NA,"INCREASED APPETITE",NA,"HLT_0566",NA,"HLGT_0769",NA,"METABOLISM AND NUTRITION DISORDERS",NA,"METABOLISM AND NUTRITION DISORDERS",NA,"MILD","N",NA,"POSSIBLE","RECOVERED/RESOLVED","N","N","N","N","N","N","N","2013-11-18","2013-10-13","2013-11-06",21,45,2013-09-23,2014-03-16,NA,2014-04-01,2013-10-13,NA,"H",2013-11-06 23:59:59,NA,"H",2013-10-13,2013-11-06,21,45,25,"days",2013-10-13,0,"mg","MILD","POSSIBLE","Y",1,NA,"1153","2013-09-23","2014-04-01","2013-09-23","2014-03-16",NA,"2014-04-01T14:25",NA,NA,"701",79,"YEARS","F","WHITE","NOT HISPANIC OR LATINO","Pbo","Placebo","Pbo","Placebo","USA","2013-09-06",-17,"Placebo","Placebo",2013-09-23,"H",2014-03-16 23:59:59,"H",175,NA,"COMPLETED",NA,2013-09-23,NA,NA,NA,NA,NA,NA,2014-04-01,"Y","White",">64","NA",NA,NA,NA,NA
"CDISCPILOT01","AE","01-701-1180",7,"E05","APPLICATION SITE VESICLES","APPLICATION SITE BLISTER",NA,"APPLICATION SITE VESICLES",NA,"HLT_0180",NA,"HLGT_0576",NA,"GENERAL DISORDERS AND ADMINISTRATION SITE CONDITIONS",NA,"GENERAL DISORDERS AND ADMINISTRATION SITE CONDITIONS",NA,"MODERATE","N",NA,"POSSIBLE","NOT RECOVERED/NOT RESOLVED","N","N","N","N","N","N","N","2013-03-23","2013-03-19",NA,36,NA,2013-02-12,2013-03-18,NA,2013-03-23,2013-03-19,NA,"H",NA,NA,NA,2013-03-19,NA,36,NA,NA,NA,2013-02-25,NA,NA,"MODERATE","POSSIBLE","Y",2,"Y","1180","2013-02-12","2013-03-23","2013-02-12","2013-03-18",NA,"2013-04-07",NA,NA,"701",56,"YEARS","M","WHITE","NOT HISPANIC OR LATINO","Xan_Hi","Xanomeline High Dose","Xan_Hi","Xanomeline High Dose","USA","2013-01-28",-15,"Xanomeline High Dose","Xanomeline High Dose",2013-02-12,"H",2013-03-18 23:59:59,"H",35,NA,"DISCONTINUED",NA,2013-02-12,NA,NA,NA,NA,NA,NA,2013-03-23,"Y","White","18-64","NA",NA,NA,NA,NA
"CDISCPILOT01","AE","01-701-1180",8,"E06","APPLICATION SITE PRURITUS","APPLICATION SITE ITCHING",NA,"APPLICATION SITE PRURITUS",NA,"HLT_0317",NA,"HLGT_0338",NA,"GENERAL DISORDERS AND ADMINISTRATION SITE CONDITIONS",NA,"GENERAL DISORDERS AND ADMINISTRATION SITE CONDITIONS",NA,"MODERATE","N",NA,"POSSIBLE","NOT RECOVERED/NOT RESOLVED","N","N","N","N","N","N","N","2013-03-23","2013-03-19",NA,36,NA,2013-02-12,2013-03-18,NA,2013-03-23,2013-03-19,NA,"H",NA,NA,NA,2013-03-19,NA,36,NA,NA,NA,2013-02-25,NA,NA,"MODERATE","POSSIBLE","Y",2,NA,"1180","2013-02-12","2013-03-23","2013-02-12","2013-03-18",NA,"2013-04-07",NA,NA,"701",56,"YEARS","M","WHITE","NOT HISPANIC OR LATINO","Xan_Hi","Xanomeline High Dose","Xan_Hi","Xanomeline High Dose","USA","2013-01-28",-15,"Xanomeline High Dose","Xanomeline High Dose",2013-02-12,"H",2013-03-18 23:59:59,"H",35,NA,"DISCONTINUED",NA,2013-02-12,NA,NA,NA,NA,NA,NA,2013-03-23,"Y","White","18-64","NA",NA,NA,NA,NA
"CDISCPILOT01","AE","01-701-1180",9,"E07","APPLICATION SITE ERYTHEMA","APPLICATION SITE ERYTHEMA",NA,"APPLICATION SITE ERYTHEMA",NA,"HLT_0617",NA,"HLGT_0152",NA,"GENERAL DISORDERS AND ADMINISTRATION SITE CONDITIONS",NA,"GENERAL DISORDERS AND ADMINISTRATION SITE CONDITIONS",NA,"MODERATE","N",NA,"POSSIBLE","NOT RECOVERED/NOT RESOLVED","N","N","N","N","N","N","N","2013-03-23","2013-03-19",NA,36,NA,2013-02-12,2013-03-18,NA,2013-03-23,2013-03-19,NA,"H",NA,NA,NA,2013-03-19,NA,36,NA,NA,NA,2013-02-25,NA,NA,"MODERATE","POSSIBLE","Y",2,NA,"1180","2013-02-12","2013-03-23","2013-02-12","2013-03-18",NA,"2013-04-07",NA,NA,"701",56,"YEARS","M","WHITE","NOT HISPANIC OR LATINO","Xan_Hi","Xanomeline High Dose","Xan_Hi","Xanomeline High Dose","USA","2013-01-28",-15,"Xanomeline High Dose","Xanomeline High Dose",2013-02-12,"H",2013-03-18 23:59:59,"H",35,NA,"DISCONTINUED",NA,2013-02-12,NA,NA,NA,NA,NA,NA,2013-03-23,"Y","White","18-64","NA",NA,NA,NA,NA
"CDISCPILOT01","AE","01-701-1180",1,"E01","VOMITING","VOMITING",NA,"VOMITING",NA,"HLT_0016",NA,"HLGT_0350",NA,"GASTROINTESTINAL DISORDERS",NA,"GASTROINTESTINAL DISORDERS",NA,"MILD","N",NA,"NONE","NOT RECOVERED/NOT RESOLVED","N","N","N","N","N","N","N","2013-02-12","2013-02-12","2013-02-12",1,1,2013-02-12,2013-03-18,NA,2013-03-23,2013-02-12,NA,"H",2013-02-12 23:59:59,NA,"H",2013-02-12,2013-02-12,1,1,1,"days",2013-02-12,54,"mg","MILD","NONE","Y",1,NA,"1180","2013-02-12","2013-03-23","2013-02-12","2013-03-18",NA,"2013-04-07",NA,NA,"701",56,"YEARS","M","WHITE","NOT HISPANIC OR LATINO","Xan_Hi","Xanomeline High Dose","Xan_Hi","Xanomeline High Dose","USA","2013-01-28",-15,"Xanomeline High Dose","Xanomeline High Dose",2013-02-12,"H",2013-03-18 23:59:59,"H",35,NA,"DISCONTINUED",NA,2013-02-12,NA,NA,NA,NA,NA,NA,2013-03-23,"Y","White","18-64","NA",NA,NA,NA,NA
"CDISCPILOT01","AE","01-701-1180",2,"E01","VOMITING","VOMITING",NA,"VOMITING",NA,"HLT_0016",NA,"HLGT_0350",NA,"GASTROINTESTINAL DISORDERS",NA,"GASTROINTESTINAL DISORDERS",NA,"MILD","N",NA,"NONE","RECOVERED/RESOLVED","N","N","N","N","N","N","N","2013-02-25","2013-02-12","2013-02-12",1,1,2013-02-12,2013-03-18,NA,2013-03-23,2013-02-12,NA,"H",2013-02-12 23:59:59,NA,"H",2013-02-12,2013-02-12,1,1,1,"days",2013-02-12,54,"mg","MILD","NONE","Y",1,NA,"1180","2013-02-12","2013-03-23","2013-02-12","2013-03-18",NA,"2013-04-07",NA,NA,"701",56,"YEARS","M","WHITE","NOT HISPANIC OR LATINO","Xan_Hi","Xanomeline High Dose","Xan_Hi","Xanomeline High Dose","USA","2013-01-28",-15,"Xanomeline High Dose","Xanomeline High Dose",2013-02-12,"H",2013-03-18 23:59:59,"H",35,NA,"DISCONTINUED",NA,2013-02-12,NA,NA,NA,NA,NA,NA,2013-03-23,"Y","White","18-64","NA",NA,NA,NA,NA
"CDISCPILOT01","AE","01-701-1180",3,"E02","MICTURITION URGENCY","URINARY URGENCY",NA,"MICTURITION URGENCY",NA,"HLT_0294",NA,"HLGT_0483",NA,"RENAL AND URINARY DISORDERS",NA,"RENAL AND URINARY DISORDERS",NA,"MILD","N",NA,"POSSIBLE","NOT RECOVERED/NOT RESOLVED","N","N","N","N","N","N","N","2013-02-25","2013-02-15","2013-03-19",4,36,2013-02-12,2013-03-18,NA,2013-03-23,2013-02-15,NA,"H",2013-03-19 23:59:59,NA,"H",2013-02-15,2013-03-19,4,36,33,"days",2013-02-15,54,"mg","MILD","POSSIBLE","Y",1,NA,"1180","2013-02-12","2013-03-23","2013-02-12","2013-03-18",NA,"2013-04-07",NA,NA,"701",56,"YEARS","M","WHITE","NOT HISPANIC OR LATINO","Xan_Hi","Xanomeline High Dose","Xan_Hi","Xanomeline High Dose","USA","2013-01-28",-15,"Xanomeline High Dose","Xanomeline High Dose",2013-02-12,"H",2013-03-18 23:59:59,"H",35,NA,"DISCONTINUED",NA,2013-02-12,NA,NA,NA,NA,NA,NA,2013-03-23,"Y","White","18-64","NA",NA,NA,NA,NA
"CDISCPILOT01","AE","01-701-1180",6,"E02","MICTURITION URGENCY","URINARY URGENCY",NA,"MICTURITION URGENCY",NA,"HLT_0294",NA,"HLGT_0483",NA,"RENAL AND URINARY DISORDERS",NA,"RENAL AND URINARY DISORDERS",NA,"MILD","N",NA,"POSSIBLE","RECOVERED/RESOLVED","N","N","N","N","N","N","N","2013-03-23","2013-02-15","2013-03-19",4,36,2013-02-12,2013-03-18,NA,2013-03-23,2013-02-15,NA,"H",2013-03-19 23:59:59,NA,"H",2013-02-15,2013-03-19,4,36,33,"days",2013-02-15,54,"mg","MILD","POSSIBLE","Y",1,NA,"1180","2013-02-12","2013-03-23","2013-02-12","2013-03-18",NA,"2013-04-07",NA,NA,"701",56,"YEARS","M","WHITE","NOT HISPANIC OR LATINO","Xan_Hi","Xanomeline High Dose","Xan_Hi","Xanomeline High Dose","USA","2013-01-28",-15,"Xanomeline High Dose","Xanomeline High Dose",2013-02-12,"H",2013-03-18 23:59:59,"H",35,NA,"DISCONTINUED",NA,2013-02-12,NA,NA,NA,NA,NA,NA,2013-03-23,"Y","White","18-64","NA",NA,NA,NA,NA
"CDISCPILOT01","AE","01-701-1180",5,"E03","NASOPHARYNGITIS","COLD",NA,"NASOPHARYNGITIS",NA,"HLT_0036",NA,"HLGT_0709",NA,"INFECTIONS AND INFESTATIONS",NA,"INFECTIONS AND INFESTATIONS",NA,"MILD","N",NA,"NONE","RECOVERED/RESOLVED","N","N","N","N","N","N","N","2013-03-11","2013-03-06","2013-03-07",23,24,2013-02-12,2013-03-18,NA,2013-03-23,2013-03-06,NA,"H",2013-03-07 23:59:59,NA,"H",2013-03-06,2013-03-07,23,24,2,"days",2013-02-25,NA,NA,"MILD","NONE","Y",1,NA,"1180","2013-02-12","2013-03-23","2013-02-12","2013-03-18",NA,"2013-04-07",NA,NA,"701",56,"YEARS","M","WHITE","NOT HISPANIC OR LATINO","Xan_Hi","Xanomeline High Dose","Xan_Hi","Xanomeline High Dose","USA","2013-01-28",-15,"Xanomeline High Dose","Xanomeline High Dose",2013-02-12,"H",2013-03-18 23:59:59,"H",35,NA,"DISCONTINUED",NA,2013-02-12,NA,NA,NA,NA,NA,NA,2013-03-23,"Y","White","18-64","NA",NA,NA,NA,NA
"CDISCPILOT01","AE","01-701-1181",1,"E16","AGITATION","AGITATION",NA,"AGITATION",NA,"HLT_0140",NA,"HLGT_0170",NA,"PSYCHIATRIC DISORDERS",NA,"PSYCHIATRIC DISORDERS",NA,"MODERATE","N",NA,"NONE","RECOVERED/RESOLVED","N","N","N","N","N","N","N","2013-12-12","2013-12-09","2013-12-09",5,5,2013-12-05,2013-12-09,NA,2013-12-12,2013-12-09,NA,"H",2013-12-09 23:59:59,NA,"H",2013-12-09,2013-12-09,5,5,1,"days",2013-12-09,54,"mg","MODERATE","NONE","Y",2,"Y","1181","2013-12-05","2013-12-12","2013-12-05","2013-12-09",NA,"2014-05-23",NA,NA,"701",79,"YEARS","F","WHITE","NOT HISPANIC OR LATINO","Xan_Hi","Xanomeline High Dose","Xan_Lo","Xanomeline Low Dose","USA","2013-11-26",-9,"Xanomeline High Dose","Xanomeline Low Dose",2013-12-05,"H",2013-12-09 23:59:59,"H",5,NA,"DISCONTINUED",2014-05-23,2013-12-05,NA,NA,NA,NA,NA,NA,2013-12-12,"Y","White",">64","NA",NA,NA,NA,NA
"CDISCPILOT01","AE","01-701-1188",3,"E04","ERYTHEMA","ERYTHEMA",NA,"ERYTHEMA",NA,"HLT_0284",NA,"HLGT_0192",NA,"SKIN AND SUBCUTANEOUS TISSUE DISORDERS",NA,"SKIN AND SUBCUTANEOUS TISSUE DISORDERS",NA,"MODERATE","N",NA,"PROBABLE","NOT RECOVERED/NOT RESOLVED","N","N","N","N","N","N","N","2013-03-16","2013-02-16",NA,2,NA,2013-02-15,2013-03-24,NA,2013-03-25,2013-02-16,NA,"H",NA,NA,NA,2013-02-16,NA,2,NA,NA,NA,2013-02-16,54,"mg","MODERATE","PROBABLE","Y",2,"Y","1188","2013-02-15","2013-03-25","2013-02-15","2013-03-24",NA,"2013-08-04",NA,NA,"701",71,"YEARS","M","WHITE","NOT HISPANIC OR LATINO","Xan_Lo","Xanomeline Low Dose","Xan_Lo","Xanomeline Low Dose","USA","2013-02-03",-12,"Xanomeline Low Dose","Xanomeline Low Dose",2013-02-15,"H",2013-03-24 23:59:59,"H",38,NA,"DISCONTINUED",2013-08-04,2013-02-15,NA,NA,NA,NA,NA,NA,2013-03-25,"Y","White",">64","NA",NA,NA,NA,NA
"CDISCPILOT01","AE","01-701-1188",4,"E05","PRURITUS","ITCHING",NA,"PRURITUS",NA,"HLT_0778",NA,"HLGT_0695",NA,"SKIN AND SUBCUTANEOUS TISSUE DISORDERS",NA,"SKIN AND SUBCUTANEOUS TISSUE DISORDERS",NA,"MODERATE","N",NA,"PROBABLE","NOT RECOVERED/NOT RESOLVED","N","N","N","N","N","N","N","2013-03-16","2013-02-16",NA,2,NA,2013-02-15,2013-03-24,NA,2013-03-25,2013-02-16,NA,"H",NA,NA,NA,2013-02-16,NA,2,NA,NA,NA,2013-02-16,54,"mg","MODERATE","PROBABLE","Y",2,NA,"1188","2013-02-15","2013-03-25","2013-02-15","2013-03-24",NA,"2013-08-04",NA,NA,"701",71,"YEARS","M","WHITE","NOT HISPANIC OR LATINO","Xan_Lo","Xanomeline Low Dose","Xan_Lo","Xanomeline Low Dose","USA","2013-02-03",-12,"Xanomeline Low Dose","Xanomeline Low Dose",2013-02-15,"H",2013-03-24 23:59:59,"H",38,NA,"DISCONTINUED",2013-08-04,2013-02-15,NA,NA,NA,NA,NA,NA,2013-03-25,"Y","White",">64","NA",NA,NA,NA,NA
"CDISCPILOT01","AE","01-701-1188",6,"E06","URTICARIA","WELTS",NA,"URTICARIA",NA,"HLT_0420",NA,"HLGT_0705",NA,"SKIN AND SUBCUTANEOUS TISSUE DISORDERS",NA,"SKIN AND SUBCUTANEOUS TISSUE DISORDERS",NA,"MODERATE","N",NA,"PROBABLE","NOT RECOVERED/NOT RESOLVED","N","N","N","N","N","N","N","2013-03-25","2013-03-04",NA,18,NA,2013-02-15,2013-03-24,NA,2013-03-25,2013-03-04,NA,"H",NA,NA,NA,2013-03-04,NA,18,NA,NA,NA,2013-03-04,54,"mg","MODERATE","PROBABLE","Y",2,NA,"1188","2013-02-15","2013-03-25","2013-02-15","2013-03-24",NA,"2013-08-04",NA,NA,"701",71,"YEARS","M","WHITE","NOT HISPANIC OR LATINO","Xan_Lo","Xanomeline Low Dose","Xan_Lo","Xanomeline Low Dose","USA","2013-02-03",-12,"Xanomeline Low Dose","Xanomeline Low Dose",2013-02-15,"H",2013-03-24 23:59:59,"H",38,NA,"DISCONTINUED",2013-08-04,2013-02-15,NA,NA,NA,NA,NA,NA,2013-03-25,"Y","White",">64","NA",NA,NA,NA,NA
"CDISCPILOT01","AE","01-701-1188",1,"E04","ERYTHEMA","ERYTHEMA",NA,"ERYTHEMA",NA,"HLT_0284",NA,"HLGT_0192",NA,"SKIN AND SUBCUTANEOUS TISSUE DISORDERS",NA,"SKIN AND SUBCUTANEOUS TISSUE DISORDERS",NA,"MILD","N",NA,"PROBABLE","NOT RECOVERED/NOT RESOLVED","N","N","N","N","N","N","N","2013-03-02","2013-02-16",NA,2,NA,2013-02-15,2013-03-24,NA,2013-03-25,2013-02-16,NA,"H",NA,NA,NA,2013-02-16,NA,2,NA,NA,NA,2013-02-16,54,"mg","MILD","PROBABLE","Y",1,NA,"1188","2013-02-15","2013-03-25","2013-02-15","2013-03-24",NA,"2013-08-04",NA,NA,"701",71,"YEARS","M","WHITE","NOT HISPANIC OR LATINO","Xan_Lo","Xanomeline Low Dose","Xan_Lo","Xanomeline Low Dose","USA","2013-02-03",-12,"Xanomeline Low Dose","Xanomeline Low Dose",2013-02-15,"H",2013-03-24 23:59:59,"H",38,NA,"DISCONTINUED",2013-08-04,2013-02-15,NA,NA,NA,NA,NA,NA,2013-03-25,"Y","White",">64","NA",NA,NA,NA,NA
"CDISCPILOT01","AE","01-701-1188",2,"E05","PRURITUS","ITCHING",NA,"PRURITUS",NA,"HLT_0778",NA,"HLGT_0695",NA,"SKIN AND SUBCUTANEOUS TISSUE DISORDERS",NA,"SKIN AND SUBCUTANEOUS TISSUE DISORDERS",NA,"MILD","N",NA,"PROBABLE","NOT RECOVERED/NOT RESOLVED","N","N","N","N","N","N","N","2013-03-02","2013-02-16",NA,2,NA,2013-02-15,2013-03-24,NA,2013-03-25,2013-02-16,NA,"H",NA,NA,NA,2013-02-16,NA,2,NA,NA,NA,2013-02-16,54,"mg","MILD","PROBABLE","Y",1,NA,"1188","2013-02-15","2013-03-25","2013-02-15","2013-03-24",NA,"2013-08-04",NA,NA,"701",71,"YEARS","M","WHITE","NOT HISPANIC OR LATINO","Xan_Lo","Xanomeline Low Dose","Xan_Lo","Xanomeline Low Dose","USA","2013-02-03",-12,"Xanomeline Low Dose","Xanomeline Low Dose",2013-02-15,"H",2013-03-24 23:59:59,"H",38,NA,"DISCONTINUED",2013-08-04,2013-02-15,NA,NA,NA,NA,NA,NA,2013-03-25,"Y","White",">64","NA",NA,NA,NA,NA
"CDISCPILOT01","AE","01-701-1188",5,"E06","URTICARIA","WELTS",NA,"URTICARIA",NA,"HLT_0420",NA,"HLGT_0705",NA,"SKIN AND SUBCUTANEOUS TISSUE DISORDERS",NA,"SKIN AND SUBCUTANEOUS TISSUE DISORDERS",NA,"MILD","N",NA,"PROBABLE","NOT RECOVERED/NOT RESOLVED","N","N","N","N","N","N","N","2013-03-16","2013-03-04",NA,18,NA,2013-02-15,2013-03-24,NA,2013-03-25,2013-03-04,NA,"H",NA,NA,NA,2013-03-04,NA,18,NA,NA,NA,2013-03-04,54,"mg","MILD","PROBABLE","Y",1,NA,"1188","2013-02-15","2013-03-25","2013-02-15","2013-03-24",NA,"2013-08-04",NA,NA,"701",71,"YEARS","M","WHITE","NOT HISPANIC OR LATINO","Xan_Lo","Xanomeline Low Dose","Xan_Lo","Xanomeline Low Dose","USA","2013-02-03",-12,"Xanomeline Low Dose","Xanomeline Low Dose",2013-02-15,"H",2013-03-24 23:59:59,"H",38,NA,"DISCONTINUED",2013-08-04,2013-02-15,NA,NA,NA,NA,NA,NA,2013-03-25,"Y","White",">64","NA",NA,NA,NA,NA
"CDISCPILOT01","AE","01-701-1188",7,"E09","APPLICATION SITE URTICARIA","APPLICATION SITE URTICARIA",NA,"APPLICATION SITE URTICARIA",NA,"HLT_0196",NA,"HLGT_0233",NA,"GENERAL DISORDERS AND ADMINISTRATION SITE CONDITIONS",NA,"GENERAL DISORDERS AND ADMINISTRATION SITE CONDITIONS",NA,"MILD","N",NA,"PROBABLE","NOT RECOVERED/NOT RESOLVED","N","N","N","N","N","N","N","2013-03-25","2013-03-21",NA,35,NA,2013-02-15,2013-03-24,NA,2013-03-25,2013-03-21,NA,"H",NA,NA,NA,2013-03-21,NA,35,NA,NA,NA,2013-03-21,54,"mg","MILD","PROBABLE","Y",1,NA,"1188","2013-02-15","2013-03-25","2013-02-15","2013-03-24",NA,"2013-08-04",NA,NA,"701",71,"YEARS","M","WHITE","NOT HISPANIC OR LATINO","Xan_Lo","Xanomeline Low Dose","Xan_Lo","Xanomeline Low Dose","USA","2013-02-03",-12,"Xanomeline Low Dose","Xanomeline Low Dose",2013-02-15,"H",2013-03-24 23:59:59,"H",38,NA,"DISCONTINUED",2013-08-04,2013-02-15,NA,NA,NA,NA,NA,NA,2013-03-25,"Y","White",">64","NA",NA,NA,NA,NA
"CDISCPILOT01","AE","01-701-1188",8,"E10","URTICARIA","WELTS",NA,"URTICARIA",NA,"HLT_0420",NA,"HLGT_0705",NA,"SKIN AND SUBCUTANEOUS TISSUE DISORDERS",NA,"SKIN AND SUBCUTANEOUS TISSUE DISORDERS",NA,"MILD","N",NA,"PROBABLE","NOT RECOVERED/NOT RESOLVED","N","N","N","N","N","N","N","2013-03-25","2013-03-21",NA,35,NA,2013-02-15,2013-03-24,NA,2013-03-25,2013-03-21,NA,"H",NA,NA,NA,2013-03-21,NA,35,NA,NA,NA,2013-03-21,54,"mg","MILD","PROBABLE","Y",1,NA,"1188","2013-02-15","2013-03-25","2013-02-15","2013-03-24",NA,"2013-08-04",NA,NA,"701",71,"YEARS","M","WHITE","NOT HISPANIC OR LATINO","Xan_Lo","Xanomeline Low Dose","Xan_Lo","Xanomeline Low Dose","USA","2013-02-03",-12,"Xanomeline Low Dose","Xanomeline Low Dose",2013-02-15,"H",2013-03-24 23:59:59,"H",38,NA,"DISCONTINUED",2013-08-04,2013-02-15,NA,NA,NA,NA,NA,NA,2013-03-25,"Y","White",">64","NA",NA,NA,NA,NA
"CDISCPILOT01","AE","01-701-1192",7,"E10","PNEUMONIA","PNEUMONIA",NA,"PNEUMONIA",NA,"HLT_0251",NA,"HLGT_0671",NA,"INFECTIONS AND INFESTATIONS",NA,"INFECTIONS AND INFESTATIONS",NA,"MODERATE","N",NA,"NONE","NOT RECOVERED/NOT RESOLVED","N","N","N","N","Y","N","N","2012-09-23","2012-09-07","2012-10-06",48,77,2012-07-22,2013-01-20,NA,2013-01-20,2012-09-07,NA,"H",2012-10-06 23:59:59,NA,"H",2012-09-07,2012-10-06,48,77,30,"days",2012-09-07,54,"mg","MODERATE","NONE","Y",2,"Y","1192","2012-07-22","2013-01-20","2012-07-22","2013-01-20",NA,"2013-01-20T15:47",NA,NA,"701",80,"YEARS","F","WHITE","NOT HISPANIC OR LATINO","Xan_Lo","Xanomeline Low Dose","Xan_Lo","Xanomeline Low Dose","USA","2012-07-08",-14,"Xanomeline Low Dose","Xanomeline Low Dose",2012-07-22,"H",2013-01-20 23:59:59,"H",183,NA,"COMPLETED",NA,2012-07-22,NA,NA,NA,NA,NA,NA,2013-01-20,"Y","White",">64","NA",NA,NA,NA,NA
"CDISCPILOT01","AE","01-701-1192",8,"E11","MUSCULAR WEAKNESS","MUSCULAR WEAKNESS",NA,"MUSCULAR WEAKNESS",NA,"HLT_0444",NA,"HLGT_0211",NA,"MUSCULOSKELETAL AND CONNECTIVE TISSUE DISORDERS",NA,"MUSCULOSKELETAL AND CONNECTIVE TISSUE DISORDERS",NA,"MODERATE","N",NA,"NONE","NOT RECOVERED/NOT RESOLVED","N","N","N","N","N","N","N","2012-09-23","2012-09-07","2012-09-30",48,71,2012-07-22,2013-01-20,NA,2013-01-20,2012-09-07,NA,"H",2012-09-30 23:59:59,NA,"H",2012-09-07,2012-09-30,48,71,24,"days",2012-09-07,54,"mg","MODERATE","NONE","Y",2,NA,"1192","2012-07-22","2013-01-20","2012-07-22","2013-01-20",NA,"2013-01-20T15:47",NA,NA,"701",80,"YEARS","F","WHITE","NOT HISPANIC OR LATINO","Xan_Lo","Xanomeline Low Dose","Xan_Lo","Xanomeline Low Dose","USA","2012-07-08",-14,"Xanomeline Low Dose","Xanomeline Low Dose",2012-07-22,"H",2013-01-20 23:59:59,"H",183,NA,"COMPLETED",NA,2012-07-22,NA,NA,NA,NA,NA,NA,2013-01-20,"Y","White",">64","NA",NA,NA,NA,NA
"CDISCPILOT01","AE","01-701-1192",10,"E10","PNEUMONIA","PNEUMONIA",NA,"PNEUMONIA",NA,"HLT_0251",NA,"HLGT_0671",NA,"INFECTIONS AND INFESTATIONS",NA,"INFECTIONS AND INFESTATIONS",NA,"MODERATE","N",NA,"NONE","RECOVERED/RESOLVED","N","N","N","N","Y","N","N","2012-10-14","2012-09-07","2012-10-06",48,77,2012-07-22,2013-01-20,NA,2013-01-20,2012-09-07,NA,"H",2012-10-06 23:59:59,NA,"H",2012-09-07,2012-10-06,48,77,30,"days",2012-09-07,54,"mg","MODERATE","NONE","Y",2,NA,"1192","2012-07-22","2013-01-20","2012-07-22","2013-01-20",NA,"2013-01-20T15:47",NA,NA,"701",80,"YEARS","F","WHITE","NOT HISPANIC OR LATINO","Xan_Lo","Xanomeline Low Dose","Xan_Lo","Xanomeline Low Dose","USA","2012-07-08",-14,"Xanomeline Low Dose","Xanomeline Low Dose",2012-07-22,"H",2013-01-20 23:59:59,"H",183,NA,"COMPLETED",NA,2012-07-22,NA,NA,NA,NA,NA,NA,2013-01-20,"Y","White",">64","NA",NA,NA,NA,NA
"CDISCPILOT01","AE","01-701-1192",11,"E11","MUSCULAR WEAKNESS","MUSCULAR WEAKNESS",NA,"MUSCULAR WEAKNESS",NA,"HLT_0444",NA,"HLGT_0211",NA,"MUSCULOSKELETAL AND CONNECTIVE TISSUE DISORDERS",NA,"MUSCULOSKELETAL AND CONNECTIVE TISSUE DISORDERS",NA,"MODERATE","N",NA,"NONE","RECOVERED/RESOLVED","N","N","N","N","N","N","N","2012-10-14","2012-09-07","2012-09-30",48,71,2012-07-22,2013-01-20,NA,2013-01-20,2012-09-07,NA,"H",2012-09-30 23:59:59,NA,"H",2012-09-07,2012-09-30,48,71,24,"days",2012-09-07,54,"mg","MODERATE","NONE","Y",2,NA,"1192","2012-07-22","2013-01-20","2012-07-22","2013-01-20",NA,"2013-01-20T15:47",NA,NA,"701",80,"YEARS","F","WHITE","NOT HISPANIC OR LATINO","Xan_Lo","Xanomeline Low Dose","Xan_Lo","Xanomeline Low Dose","USA","2012-07-08",-14,"Xanomeline Low Dose","Xanomeline Low Dose",2012-07-22,"H",2013-01-20 23:59:59,"H",183,NA,"COMPLETED",NA,2012-07-22,NA,NA,NA,NA,NA,NA,2013-01-20,"Y","White",">64","NA",NA,NA,NA,NA
"CDISCPILOT01","AE","01-701-1192",1,"E06","NASAL MUCOSA BIOPSY","NASAL MUCOSA BIOPSY",NA,"NASAL MUCOSA BIOPSY",NA,"HLT_0680",NA,"HLGT_0396",NA,"INVESTIGATIONS",NA,"INVESTIGATIONS",NA,"MILD","N",NA,"NONE","RECOVERED/RESOLVED","N","N","N","N","N","N","N","2012-08-07","2012-08-03","2012-08-03",13,13,2012-07-22,2013-01-20,NA,2013-01-20,2012-08-03,NA,"H",2012-08-03 23:59:59,NA,"H",2012-08-03,2012-08-03,13,13,1,"days",2012-08-03,54,"mg","MILD","NONE","Y",1,NA,"1192","2012-07-22","2013-01-20","2012-07-22","2013-01-20",NA,"2013-01-20T15:47",NA,NA,"701",80,"YEARS","F","WHITE","NOT HISPANIC OR LATINO","Xan_Lo","Xanomeline Low Dose","Xan_Lo","Xanomeline Low Dose","USA","2012-07-08",-14,"Xanomeline Low Dose","Xanomeline Low Dose",2012-07-22,"H",2013-01-20 23:59:59,"H",183,NA,"COMPLETED",NA,2012-07-22,NA,NA,NA,NA,NA,NA,2013-01-20,"Y","White",">64","NA",NA,NA,NA,NA
"CDISCPILOT01","AE","01-701-1192",2,"E08","SECRETION DISCHARGE","SECRETION DISCHARGE",NA,"SECRETION DISCHARGE",NA,"HLT_0683",NA,"HLGT_0575",NA,"GENERAL DISORDERS AND ADMINISTRATION SITE CONDITIONS",NA,"GENERAL DISORDERS AND ADMINISTRATION SITE CONDITIONS",NA,"MILD","N",NA,"NONE","NOT RECOVERED/NOT RESOLVED","N","N","N","N","N","N","N","2012-08-07","2012-08-07","2012-09-14",17,55,2012-07-22,2013-01-20,NA,2013-01-20,2012-08-07,NA,"H",2012-09-14 23:59:59,NA,"H",2012-08-07,2012-09-14,17,55,39,"days",2012-08-07,54,"mg","MILD","NONE","Y",1,NA,"1192","2012-07-22","2013-01-20","2012-07-22","2013-01-20",NA,"2013-01-20T15:47",NA,NA,"701",80,"YEARS","F","WHITE","NOT HISPANIC OR LATINO","Xan_Lo","Xanomeline Low Dose","Xan_Lo","Xanomeline Low Dose","USA","2012-07-08",-14,"Xanomeline Low Dose","Xanomeline Low Dose",2012-07-22,"H",2013-01-20 23:59:59,"H",183,NA,"COMPLETED",NA,2012-07-22,NA,NA,NA,NA,NA,NA,2013-01-20,"Y","White",">64","NA",NA,NA,NA,NA
"CDISCPILOT01","AE","01-701-1192",3,"E09","ERYTHEMA","ERYTHEMA FACIAL",NA,"ERYTHEMA",NA,"HLT_0284",NA,"HLGT_0192",NA,"SKIN AND SUBCUTANEOUS TISSUE DISORDERS",NA,"SKIN AND SUBCUTANEOUS TISSUE DISORDERS",NA,"MILD","N",NA,"NONE","NOT RECOVERED/NOT RESOLVED","N","N","N","N","N","N","N","2012-08-07","2012-08-07","2012-09-14",17,55,2012-07-22,2013-01-20,NA,2013-01-20,2012-08-07,NA,"H",2012-09-14 23:59:59,NA,"H",2012-08-07,2012-09-14,17,55,39,"days",2012-08-07,54,"mg","MILD","NONE","Y",1,NA,"1192","2012-07-22","2013-01-20","2012-07-22","2013-01-20",NA,"2013-01-20T15:47",NA,NA,"701",80,"YEARS","F","WHITE","NOT HISPANIC OR LATINO","Xan_Lo","Xanomeline Low Dose","Xan_Lo","Xanomeline Low Dose","USA","2012-07-08",-14,"Xanomeline Low Dose","Xanomeline Low Dose",2012-07-22,"H",2013-01-20 23:59:59,"H",183,NA,"COMPLETED",NA,2012-07-22,NA,NA,NA,NA,NA,NA,2013-01-20,"Y","White",">64","NA",NA,NA,NA,NA
"CDISCPILOT01","AE","01-701-1192",5,"E08","SECRETION DISCHARGE","SECRETION DISCHARGE",NA,"SECRETION DISCHARGE",NA,"HLT_0683",NA,"HLGT_0575",NA,"GENERAL DISORDERS AND ADMINISTRATION SITE CONDITIONS",NA,"GENERAL DISORDERS AND ADMINISTRATION SITE CONDITIONS",NA,"MILD","N",NA,"NONE","RECOVERED/RESOLVED","N","N","N","N","N","N","N","2012-09-23","2012-08-07","2012-09-14",17,55,2012-07-22,2013-01-20,NA,2013-01-20,2012-08-07,NA,"H",2012-09-14 23:59:59,NA,"H",2012-08-07,2012-09-14,17,55,39,"days",2012-08-07,54,"mg","MILD","NONE","Y",1,NA,"1192","2012-07-22","2013-01-20","2012-07-22","2013-01-20",NA,"2013-01-20T15:47",NA,NA,"701",80,"YEARS","F","WHITE","NOT HISPANIC OR LATINO","Xan_Lo","Xanomeline Low Dose","Xan_Lo","Xanomeline Low Dose","USA","2012-07-08",-14,"Xanomeline Low Dose","Xanomeline Low Dose",2012-07-22,"H",2013-01-20 23:59:59,"H",183,NA,"COMPLETED",NA,2012-07-22,NA,NA,NA,NA,NA,NA,2013-01-20,"Y","White",">64","NA",NA,NA,NA,NA
"CDISCPILOT01","AE","01-701-1192",6,"E09","ERYTHEMA","ERYTHEMA FACIAL",NA,"ERYTHEMA",NA,"HLT_0284",NA,"HLGT_0192",NA,"SKIN AND SUBCUTANEOUS TISSUE DISORDERS",NA,"SKIN AND SUBCUTANEOUS TISSUE DISORDERS",NA,"MILD","N",NA,"NONE","RECOVERED/RESOLVED","N","N","N","N","N","N","N","2012-09-23","2012-08-07","2012-09-14",17,55,2012-07-22,2013-01-20,NA,2013-01-20,2012-08-07,NA,"H",2012-09-14 23:59:59,NA,"H",2012-08-07,2012-09-14,17,55,39,"days",2012-08-07,54,"mg","MILD","NONE","Y",1,NA,"1192","2012-07-22","2013-01-20","2012-07-22","2013-01-20",NA,"2013-01-20T15:47",NA,NA,"701",80,"YEARS","F","WHITE","NOT HISPANIC OR LATINO","Xan_Lo","Xanomeline Low Dose","Xan_Lo","Xanomeline Low Dose","USA","2012-07-08",-14,"Xanomeline Low Dose","Xanomeline Low Dose",2012-07-22,"H",2013-01-20 23:59:59,"H",183,NA,"COMPLETED",NA,2012-07-22,NA,NA,NA,NA,NA,NA,2013-01-20,"Y","White",">64","NA",NA,NA,NA,NA
"CDISCPILOT01","AE","01-701-1192",12,"E12","APPLICATION SITE IRRITATION","APPLICATION SITE BURNING",NA,"APPLICATION SITE IRRITATION",NA,"HLT_0061",NA,"HLGT_0346",NA,"GENERAL DISORDERS AND ADMINISTRATION SITE CONDITIONS",NA,"GENERAL DISORDERS AND ADMINISTRATION SITE CONDITIONS",NA,"MILD","N",NA,"PROBABLE","NOT RECOVERED/NOT RESOLVED","N","N","N","N","N","N","N","2012-12-13","2012-12-05","2012-12-16",137,148,2012-07-22,2013-01-20,NA,2013-01-20,2012-12-05,NA,"H",2012-12-16 23:59:59,NA,"H",2012-12-05,2012-12-16,137,148,12,"days",2012-12-05,54,"mg","MILD","PROBABLE","Y",1,NA,"1192","2012-07-22","2013-01-20","2012-07-22","2013-01-20",NA,"2013-01-20T15:47",NA,NA,"701",80,"YEARS","F","WHITE","NOT HISPANIC OR LATINO","Xan_Lo","Xanomeline Low Dose","Xan_Lo","Xanomeline Low Dose","USA","2012-07-08",-14,"Xanomeline Low Dose","Xanomeline Low Dose",2012-07-22,"H",2013-01-20 23:59:59,"H",183,NA,"COMPLETED",NA,2012-07-22,NA,NA,NA,NA,NA,NA,2013-01-20,"Y","White",">64","NA",NA,NA,NA,NA
"CDISCPILOT01","AE","01-701-1192",13,"E13","APPLICATION SITE ERYTHEMA","APPLICATION SITE REDNESS",NA,"APPLICATION SITE ERYTHEMA",NA,"HLT_0617",NA,"HLGT_0152",NA,"GENERAL DISORDERS AND ADMINISTRATION SITE CONDITIONS",NA,"GENERAL DISORDERS AND ADMINISTRATION SITE CONDITIONS",NA,"MILD","N",NA,"PROBABLE","NOT RECOVERED/NOT RESOLVED","N","N","N","N","N","N","N","2012-12-13","2012-12-05",NA,137,NA,2012-07-22,2013-01-20,NA,2013-01-20,2012-12-05,NA,"H",NA,NA,NA,2012-12-05,NA,137,NA,NA,NA,2012-12-05,54,"mg","MILD","PROBABLE","Y",1,NA,"1192","2012-07-22","2013-01-20","2012-07-22","2013-01-20",NA,"2013-01-20T15:47",NA,NA,"701",80,"YEARS","F","WHITE","NOT HISPANIC OR LATINO","Xan_Lo","Xanomeline Low Dose","Xan_Lo","Xanomeline Low Dose","USA","2012-07-08",-14,"Xanomeline Low Dose","Xanomeline Low Dose",2012-07-22,"H",2013-01-20 23:59:59,"H",183,NA,"COMPLETED",NA,2012-07-22,NA,NA,NA,NA,NA,NA,2013-01-20,"Y","White",">64","NA",NA,NA,NA,NA
"CDISCPILOT01","AE","01-701-1192",14,"E14","APPLICATION SITE PRURITUS","APPLICATION SITE ITCHING",NA,"APPLICATION SITE PRURITUS",NA,"HLT_0317",NA,"HLGT_0338",NA,"GENERAL DISORDERS AND ADMINISTRATION SITE CONDITIONS",NA,"GENERAL DISORDERS AND ADMINISTRATION SITE CONDITIONS",NA,"MILD","N",NA,"PROBABLE","NOT RECOVERED/NOT RESOLVED","N","N","N","N","N","N","N","2012-12-13","2012-12-05",NA,137,NA,2012-07-22,2013-01-20,NA,2013-01-20,2012-12-05,NA,"H",NA,NA,NA,2012-12-05,NA,137,NA,NA,NA,2012-12-05,54,"mg","MILD","PROBABLE","Y",1,NA,"1192","2012-07-22","2013-01-20","2012-07-22","2013-01-20",NA,"2013-01-20T15:47",NA,NA,"701",80,"YEARS","F","WHITE","NOT HISPANIC OR LATINO","Xan_Lo","Xanomeline Low Dose","Xan_Lo","Xanomeline Low Dose","USA","2012-07-08",-14,"Xanomeline Low Dose","Xanomeline Low Dose",2012-07-22,"H",2013-01-20 23:59:59,"H",183,NA,"COMPLETED",NA,2012-07-22,NA,NA,NA,NA,NA,NA,2013-01-20,"Y","White",">64","NA",NA,NA,NA,NA
"CDISCPILOT01","AE","01-701-1192",15,"E12","APPLICATION SITE IRRITATION","APPLICATION SITE BURNING",NA,"APPLICATION SITE IRRITATION",NA,"HLT_0061",NA,"HLGT_0346",NA,"GENERAL DISORDERS AND ADMINISTRATION SITE CONDITIONS",NA,"GENERAL DISORDERS AND ADMINISTRATION SITE CONDITIONS",NA,"MILD","N",NA,"PROBABLE","RECOVERED/RESOLVED","N","N","N","N","N","N","N","2013-01-11","2012-12-05","2012-12-16",137,148,2012-07-22,2013-01-20,NA,2013-01-20,2012-12-05,NA,"H",2012-12-16 23:59:59,NA,"H",2012-12-05,2012-12-16,137,148,12,"days",2012-12-05,54,"mg","MILD","PROBABLE","Y",1,NA,"1192","2012-07-22","2013-01-20","2012-07-22","2013-01-20",NA,"2013-01-20T15:47",NA,NA,"701",80,"YEARS","F","WHITE","NOT HISPANIC OR LATINO","Xan_Lo","Xanomeline Low Dose","Xan_Lo","Xanomeline Low Dose","USA","2012-07-08",-14,"Xanomeline Low Dose","Xanomeline Low Dose",2012-07-22,"H",2013-01-20 23:59:59,"H",183,NA,"COMPLETED",NA,2012-07-22,NA,NA,NA,NA,NA,NA,2013-01-20,"Y","White",">64","NA",NA,NA,NA,NA
"CDISCPILOT01","AE","01-701-1203",1,"E05","EYE LASER SURGERY","EYE LASER SURGERY",NA,"EYE LASER SURGERY",NA,"HLT_0355",NA,"HLGT_0189",NA,"SURGICAL AND MEDICAL PROCEDURES",NA,"SURGICAL AND MEDICAL PROCEDURES",NA,"MILD","N",NA,"NONE","RECOVERED/RESOLVED","N","N","N","N","N","N","N","2013-03-30","2013-03-21","2013-03-21",48,48,2013-02-02,2013-08-03,NA,2013-08-03,2013-03-21,NA,"H",2013-03-21 23:59:59,NA,"H",2013-03-21,2013-03-21,48,48,1,"days",2013-03-21,0,"mg","MILD","NONE","Y",1,"Y","1203","2013-02-02","2013-08-03","2013-02-02","2013-08-03",NA,"2013-08-03T10:10",NA,NA,"701",81,"YEARS","F","BLACK OR AFRICAN AMERICAN","NOT HISPANIC OR LATINO","Pbo","Placebo","Pbo","Placebo","USA","2013-01-25",-8,"Placebo","Placebo",2013-02-02,"H",2013-08-03 23:59:59,"H",183,NA,"COMPLETED",NA,2013-02-02,NA,NA,NA,NA,NA,NA,2013-08-03,"Y","Non-white",">64","NA",NA,NA,NA,NA
"CDISCPILOT01","AE","01-701-1211",9,"E11","SUDDEN DEATH","SUDDEN DEATH",NA,"SUDDEN DEATH",NA,"HLT_0142",NA,"HLGT_0272",NA,"GENERAL DISORDERS AND ADMINISTRATION SITE CONDITIONS",NA,"GENERAL DISORDERS AND ADMINISTRATION SITE CONDITIONS",NA,"SEVERE","N",NA,"NONE","FATAL","N","N","N","Y","N","Y","N","2013-01-14","2013-01-14","2013-01-14",61,61,2012-11-15,2013-01-12,2013-01-14,2013-01-14,2013-01-14,NA,"H",2013-01-14 23:59:59,NA,"H",2013-01-14,2013-01-14,61,61,1,"days",2013-01-12,NA,NA,"SEVERE","NONE","Y",3,"Y","1211","2012-11-15","2013-01-14","2012-11-15","2013-01-12",NA,"2013-01-14","2013-01-14","Y","701",76,"YEARS","F","WHITE","NOT HISPANIC OR LATINO","Xan_Lo","Xanomeline Low Dose","Xan_Lo","Xanomeline Low Dose","USA","2012-10-30",-16,"Xanomeline Low Dose","Xanomeline Low Dose",2012-11-15,"H",2013-01-12 23:59:59,"H",59,NA,"DISCONTINUED",NA,2012-11-15,NA,61,2,"SUDDEN DEATH","AE","ADVERSE EVENT",2013-01-14,"Y","White",">64","NA","<= 30","Y",NA,NA
"CDISCPILOT01","AE","01-701-1211",2,"E03","JOINT DISLOCATION","SHOULDER DISLOCATION",NA,"JOINT DISLOCATION",NA,"HLT_0035",NA,"HLGT_0227",NA,"INJURY, POISONING AND PROCEDURAL COMPLICATIONS",NA,"INJURY, POISONING AND PROCEDURAL COMPLICATIONS",NA,"MODERATE","N",NA,"NONE","RECOVERED/RESOLVED","N","N","N","N","N","N","N","2012-11-28","2012-11-21","2012-11-21",7,7,2012-11-15,2013-01-12,2013-01-14,2013-01-14,2012-11-21,NA,"H",2012-11-21 23:59:59,NA,"H",2012-11-21,2012-11-21,7,7,1,"days",2012-11-21,54,"mg","MODERATE","NONE","Y",2,NA,"1211","2012-11-15","2013-01-14","2012-11-15","2013-01-12",NA,"2013-01-14","2013-01-14","Y","701",76,"YEARS","F","WHITE","NOT HISPANIC OR LATINO","Xan_Lo","Xanomeline Low Dose","Xan_Lo","Xanomeline Low Dose","USA","2012-10-30",-16,"Xanomeline Low Dose","Xanomeline Low Dose",2012-11-15,"H",2013-01-12 23:59:59,"H",59,NA,"DISCONTINUED",NA,2012-11-15,NA,61,2,"SUDDEN DEATH","AE","ADVERSE EVENT",2013-01-14,"Y","White",">64","NA","<= 30","Y",NA,NA
"CDISCPILOT01","AE","01-701-1211",7,"E12","CONFUSIONAL STATE","CONFUSION",NA,"CONFUSIONAL STATE",NA,"HLT_0642",NA,"HLGT_0329",NA,"PSYCHIATRIC DISORDERS",NA,"PSYCHIATRIC DISORDERS",NA,"MODERATE","N",NA,"NONE","NOT RECOVERED/NOT RESOLVED","N","N","N","N","N","N","N","2013-01-14","2013-01-11",NA,58,NA,2012-11-15,2013-01-12,2013-01-14,2013-01-14,2013-01-11,NA,"H",NA,NA,NA,2013-01-11,NA,58,NA,NA,NA,2013-01-11,54,"mg","MODERATE","NONE","Y",2,NA,"1211","2012-11-15","2013-01-14","2012-11-15","2013-01-12",NA,"2013-01-14","2013-01-14","Y","701",76,"YEARS","F","WHITE","NOT HISPANIC OR LATINO","Xan_Lo","Xanomeline Low Dose","Xan_Lo","Xanomeline Low Dose","USA","2012-10-30",-16,"Xanomeline Low Dose","Xanomeline Low Dose",2012-11-15,"H",2013-01-12 23:59:59,"H",59,NA,"DISCONTINUED",NA,2012-11-15,NA,61,2,"SUDDEN DEATH","AE","ADVERSE EVENT",2013-01-14,"Y","White",">64","NA","<= 30","Y",NA,NA
"CDISCPILOT01","AE","01-701-1211",8,"E13","DYSPNOEA","SHORTNESS OF BREATH",NA,"DYSPNOEA",NA,"HLT_0296",NA,"HLGT_0255",NA,"RESPIRATORY, THORACIC AND MEDIASTINAL DISORDERS",NA,"RESPIRATORY, THORACIC AND MEDIASTINAL DISORDERS",NA,"MODERATE","N",NA,"NONE","NOT RECOVERED/NOT RESOLVED","N","N","N","N","N","N","N","2013-01-14","2013-01-11",NA,58,NA,2012-11-15,2013-01-12,2013-01-14,2013-01-14,2013-01-11,NA,"H",NA,NA,NA,2013-01-11,NA,58,NA,NA,NA,2013-01-11,54,"mg","MODERATE","NONE","Y",2,NA,"1211","2012-11-15","2013-01-14","2012-11-15","2013-01-12",NA,"2013-01-14","2013-01-14","Y","701",76,"YEARS","F","WHITE","NOT HISPANIC OR LATINO","Xan_Lo","Xanomeline Low Dose","Xan_Lo","Xanomeline Low Dose","USA","2012-10-30",-16,"Xanomeline Low Dose","Xanomeline Low Dose",2012-11-15,"H",2013-01-12 23:59:59,"H",59,NA,"DISCONTINUED",NA,2012-11-15,NA,61,2,"SUDDEN DEATH","AE","ADVERSE EVENT",2013-01-14,"Y","White",">64","NA","<= 30","Y",NA,NA
"CDISCPILOT01","AE","01-701-1211",1,"E08","APPLICATION SITE PRURITUS","APPLICATION SITE ITCHING",NA,"APPLICATION SITE PRURITUS",NA,"HLT_0317",NA,"HLGT_0338",NA,"GENERAL DISORDERS AND ADMINISTRATION SITE CONDITIONS",NA,"GENERAL DISORDERS AND ADMINISTRATION SITE CONDITIONS",NA,"MILD","N",NA,"POSSIBLE","NOT RECOVERED/NOT RESOLVED","N","N","N","N","N","N","N","2012-11-28","2012-11-16",NA,2,NA,2012-11-15,2013-01-12,2013-01-14,2013-01-14,2012-11-16,NA,"H",NA,NA,NA,2012-11-16,NA,2,NA,NA,NA,2012-11-16,54,"mg","MILD","POSSIBLE","Y",1,NA,"1211","2012-11-15","2013-01-14","2012-11-15","2013-01-12",NA,"2013-01-14","2013-01-14","Y","701",76,"YEARS","F","WHITE","NOT HISPANIC OR LATINO","Xan_Lo","Xanomeline Low Dose","Xan_Lo","Xanomeline Low Dose","USA","2012-10-30",-16,"Xanomeline Low Dose","Xanomeline Low Dose",2012-11-15,"H",2013-01-12 23:59:59,"H",59,NA,"DISCONTINUED",NA,2012-11-15,NA,61,2,"SUDDEN DEATH","AE","ADVERSE EVENT",2013-01-14,"Y","White",">64","NA","<= 30","Y",NA,NA
"CDISCPILOT01","AE","01-701-1211",3,"E04","SHOULDER PAIN","SHOULDER PAIN",NA,"SHOULDER PAIN",NA,"HLT_0527",NA,"HLGT_0288",NA,"MUSCULOSKELETAL AND CONNECTIVE TISSUE DISORDERS",NA,"MUSCULOSKELETAL AND CONNECTIVE TISSUE DISORDERS",NA,"MILD","N",NA,"NONE","NOT RECOVERED/NOT RESOLVED","N","N","N","N","N","N","N","2012-11-28","2012-11-21",NA,7,NA,2012-11-15,2013-01-12,2013-01-14,2013-01-14,2012-11-21,NA,"H",NA,NA,NA,2012-11-21,NA,7,NA,NA,NA,2012-11-21,54,"mg","MILD","NONE","Y",1,NA,"1211","2012-11-15","2013-01-14","2012-11-15","2013-01-12",NA,"2013-01-14","2013-01-14","Y","701",76,"YEARS","F","WHITE","NOT HISPANIC OR LATINO","Xan_Lo","Xanomeline Low Dose","Xan_Lo","Xanomeline Low Dose","USA","2012-10-30",-16,"Xanomeline Low Dose","Xanomeline Low Dose",2012-11-15,"H",2013-01-12 23:59:59,"H",59,NA,"DISCONTINUED",NA,2012-11-15,NA,61,2,"SUDDEN DEATH","AE","ADVERSE EVENT",2013-01-14,"Y","White",">64","NA","<= 30","Y",NA,NA
"CDISCPILOT01","AE","01-701-1211",4,"E09","INCONTINENCE","INCONTINENCE",NA,"INCONTINENCE",NA,"HLT_0560",NA,"HLGT_0503",NA,"RENAL AND URINARY DISORDERS",NA,"RENAL AND URINARY DISORDERS",NA,"MILD","N",NA,"NONE","NOT RECOVERED/NOT RESOLVED","N","N","N","N","N","N","N","2012-11-28","2012-11-22",NA,8,NA,2012-11-15,2013-01-12,2013-01-14,2013-01-14,2012-11-22,NA,"H",NA,NA,NA,2012-11-22,NA,8,NA,NA,NA,2012-11-22,54,"mg","MILD","NONE","Y",1,NA,"1211","2012-11-15","2013-01-14","2012-11-15","2013-01-12",NA,"2013-01-14","2013-01-14","Y","701",76,"YEARS","F","WHITE","NOT HISPANIC OR LATINO","Xan_Lo","Xanomeline Low Dose","Xan_Lo","Xanomeline Low Dose","USA","2012-10-30",-16,"Xanomeline Low Dose","Xanomeline Low Dose",2012-11-15,"H",2013-01-12 23:59:59,"H",59,NA,"DISCONTINUED",NA,2012-11-15,NA,61,2,"SUDDEN DEATH","AE","ADVERSE EVENT",2013-01-14,"Y","White",">64","NA","<= 30","Y",NA,NA
"CDISCPILOT01","AE","01-701-1211",5,"E05","APPLICATION SITE ERYTHEMA","APPLICATION SITE REDNESS",NA,"APPLICATION SITE ERYTHEMA",NA,"HLT_0617",NA,"HLGT_0152",NA,"GENERAL DISORDERS AND ADMINISTRATION SITE CONDITIONS",NA,"GENERAL DISORDERS AND ADMINISTRATION SITE CONDITIONS",NA,"MILD","N",NA,"POSSIBLE","NOT RECOVERED/NOT RESOLVED","N","N","N","N","N","N","N","2012-12-11","2012-11-29",NA,15,NA,2012-11-15,2013-01-12,2013-01-14,2013-01-14,2012-11-29,NA,"H",NA,NA,NA,2012-11-29,NA,15,NA,NA,NA,2012-11-29,54,"mg","MILD","POSSIBLE","Y",1,NA,"1211","2012-11-15","2013-01-14","2012-11-15","2013-01-12",NA,"2013-01-14","2013-01-14","Y","701",76,"YEARS","F","WHITE","NOT HISPANIC OR LATINO","Xan_Lo","Xanomeline Low Dose","Xan_Lo","Xanomeline Low Dose","USA","2012-10-30",-16,"Xanomeline Low Dose","Xanomeline Low Dose",2012-11-15,"H",2013-01-12 23:59:59,"H",59,NA,"DISCONTINUED",NA,2012-11-15,NA,61,2,"SUDDEN DEATH","AE","ADVERSE EVENT",2013-01-14,"Y","White",">64","NA","<= 30","Y",NA,NA
"CDISCPILOT01","AE","01-701-1211",6,"E06","SKIN LACERATION","LACERATION OF FACE",NA,"SKIN LACERATION",NA,"HLT_0075",NA,"HLGT_0118",NA,"INJURY, POISONING AND PROCEDURAL COMPLICATIONS",NA,"INJURY, POISONING AND PROCEDURAL COMPLICATIONS",NA,"MILD","N",NA,"NONE","NOT RECOVERED/NOT RESOLVED","N","N","N","N","N","N","N","2012-12-11","2012-12-09",NA,25,NA,2012-11-15,2013-01-12,2013-01-14,2013-01-14,2012-12-09,NA,"H",NA,NA,NA,2012-12-09,NA,25,NA,NA,NA,2012-12-09,54,"mg","MILD","NONE","Y",1,NA,"1211","2012-11-15","2013-01-14","2012-11-15","2013-01-12",NA,"2013-01-14","2013-01-14","Y","701",76,"YEARS","F","WHITE","NOT HISPANIC OR LATINO","Xan_Lo","Xanomeline Low Dose","Xan_Lo","Xanomeline Low Dose","USA","2012-10-30",-16,"Xanomeline Low Dose","Xanomeline Low Dose",2012-11-15,"H",2013-01-12 23:59:59,"H",59,NA,"DISCONTINUED",NA,2012-11-15,NA,61,2,"SUDDEN DEATH","AE","ADVERSE EVENT",2013-01-14,"Y","White",">64","NA","<= 30","Y",NA,NA
"CDISCPILOT01","AE","01-701-1239",6,"E11","ERYTHEMA","ERYTHEMA",NA,"ERYTHEMA",NA,"HLT_0284",NA,"HLGT_0192",NA,"SKIN AND SUBCUTANEOUS TISSUE DISORDERS",NA,"SKIN AND SUBCUTANEOUS TISSUE DISORDERS",NA,"MODERATE","N",NA,"POSSIBLE","NOT RECOVERED/NOT RESOLVED","N","N","N","N","N","N","N","2014-02-19","2014-01-12",NA,2,NA,2014-01-11,2014-07-10,NA,2014-07-11,2014-01-12,NA,"H",NA,NA,NA,2014-01-12,NA,2,NA,NA,NA,2014-01-12,54,"mg","MODERATE","POSSIBLE","Y",2,"Y","1239","2014-01-11","2014-07-11","2014-01-11","2014-07-10",NA,"2014-07-11T15:40",NA,NA,"701",56,"YEARS","M","WHITE","HISPANIC OR LATINO","Xan_Hi","Xanomeline High Dose","Xan_Hi","Xanomeline High Dose","USA","2013-12-28",-14,"Xanomeline High Dose","Xanomeline High Dose",2014-01-11,"H",2014-07-10 23:59:59,"H",181,NA,"COMPLETED",NA,2014-01-11,NA,NA,NA,NA,NA,NA,2014-07-11,"Y","White","18-64","NA",NA,NA,NA,NA
"CDISCPILOT01","AE","01-701-1239",1,"E11","ERYTHEMA","ERYTHEMA",NA,"ERYTHEMA",NA,"HLT_0284",NA,"HLGT_0192",NA,"SKIN AND SUBCUTANEOUS TISSUE DISORDERS",NA,"SKIN AND SUBCUTANEOUS TISSUE DISORDERS",NA,"MILD","N",NA,"POSSIBLE","NOT RECOVERED/NOT RESOLVED","N","N","N","N","N","N","N","2014-01-25","2014-01-12",NA,2,NA,2014-01-11,2014-07-10,NA,2014-07-11,2014-01-12,NA,"H",NA,NA,NA,2014-01-12,NA,2,NA,NA,NA,2014-01-12,54,"mg","MILD","POSSIBLE","Y",1,NA,"1239","2014-01-11","2014-07-11","2014-01-11","2014-07-10",NA,"2014-07-11T15:40",NA,NA,"701",56,"YEARS","M","WHITE","HISPANIC OR LATINO","Xan_Hi","Xanomeline High Dose","Xan_Hi","Xanomeline High Dose","USA","2013-12-28",-14,"Xanomeline High Dose","Xanomeline High Dose",2014-01-11,"H",2014-07-10 23:59:59,"H",181,NA,"COMPLETED",NA,2014-01-11,NA,NA,NA,NA,NA,NA,2014-07-11,"Y","White","18-64","NA",NA,NA,NA,NA
"CDISCPILOT01","AE","01-701-1239",2,"E15","SKIN ODOUR ABNORMAL","SKIN ODOR ABNORMAL",NA,"SKIN ODOUR ABNORMAL",NA,"HLT_0510",NA,"HLGT_0184",NA,"SKIN AND SUBCUTANEOUS TISSUE DISORDERS",NA,"SKIN AND SUBCUTANEOUS TISSUE DISORDERS",NA,"MILD","N",NA,"REMOTE","NOT RECOVERED/NOT RESOLVED","N","N","N","N","N","N","N","2014-01-25","2014-01-12",NA,2,NA,2014-01-11,2014-07-10,NA,2014-07-11,2014-01-12,NA,"H",NA,NA,NA,2014-01-12,NA,2,NA,NA,NA,2014-01-12,54,"mg","MILD","REMOTE","Y",1,NA,"1239","2014-01-11","2014-07-11","2014-01-11","2014-07-10",NA,"2014-07-11T15:40",NA,NA,"701",56,"YEARS","M","WHITE","HISPANIC OR LATINO","Xan_Hi","Xanomeline High Dose","Xan_Hi","Xanomeline High Dose","USA","2013-12-28",-14,"Xanomeline High Dose","Xanomeline High Dose",2014-01-11,"H",2014-07-10 23:59:59,"H",181,NA,"COMPLETED",NA,2014-01-11,NA,NA,NA,NA,NA,NA,2014-07-11,"Y","White","18-64","NA",NA,NA,NA,NA
"CDISCPILOT01","AE","01-701-1239",3,"E12","PRURITUS","ITCHING",NA,"PRURITUS",NA,"HLT_0778",NA,"HLGT_0695",NA,"SKIN AND SUBCUTANEOUS TISSUE DISORDERS",NA,"SKIN AND SUBCUTANEOUS TISSUE DISORDERS",NA,"MILD","N",NA,"POSSIBLE","NOT RECOVERED/NOT RESOLVED","N","N","N","N","N","N","N","2014-01-25","2014-01-13",NA,3,NA,2014-01-11,2014-07-10,NA,2014-07-11,2014-01-13,NA,"H",NA,NA,NA,2014-01-13,NA,3,NA,NA,NA,2014-01-13,54,"mg","MILD","POSSIBLE","Y",1,NA,"1239","2014-01-11","2014-07-11","2014-01-11","2014-07-10",NA,"2014-07-11T15:40",NA,NA,"701",56,"YEARS","M","WHITE","HISPANIC OR LATINO","Xan_Hi","Xanomeline High Dose","Xan_Hi","Xanomeline High Dose","USA","2013-12-28",-14,"Xanomeline High Dose","Xanomeline High Dose",2014-01-11,"H",2014-07-10 23:59:59,"H",181,NA,"COMPLETED",NA,2014-01-11,NA,NA,NA,NA,NA,NA,2014-07-11,"Y","White","18-64","NA",NA,NA,NA,NA
"CDISCPILOT01","AE","01-701-1239",4,"E13","APPLICATION SITE IRRITATION","APPLICATION SITE IRRITATION",NA,"APPLICATION SITE IRRITATION",NA,"HLT_0061",NA,"HLGT_0346",NA,"GENERAL DISORDERS AND ADMINISTRATION SITE CONDITIONS",NA,"GENERAL DISORDERS AND ADMINISTRATION SITE CONDITIONS",NA,"MILD","N",NA,"PROBABLE","NOT RECOVERED/NOT RESOLVED","N","N","N","N","N","N","N","2014-01-25","2014-01-20","2014-02-08",10,29,2014-01-11,2014-07-10,NA,2014-07-11,2014-01-20,NA,"H",2014-02-08 23:59:59,NA,"H",2014-01-20,2014-02-08,10,29,20,"days",2014-01-20,54,"mg","MILD","PROBABLE","Y",1,NA,"1239","2014-01-11","2014-07-11","2014-01-11","2014-07-10",NA,"2014-07-11T15:40",NA,NA,"701",56,"YEARS","M","WHITE","HISPANIC OR LATINO","Xan_Hi","Xanomeline High Dose","Xan_Hi","Xanomeline High Dose","USA","2013-12-28",-14,"Xanomeline High Dose","Xanomeline High Dose",2014-01-11,"H",2014-07-10 23:59:59,"H",181,NA,"COMPLETED",NA,2014-01-11,NA,NA,NA,NA,NA,NA,2014-07-11,"Y","White","18-64","NA",NA,NA,NA,NA
"CDISCPILOT01","AE","01-701-1239",5,"E13","APPLICATION SITE IRRITATION","APPLICATION SITE IRRITATION",NA,"APPLICATION SITE IRRITATION",NA,"HLT_0061",NA,"HLGT_0346",NA,"GENERAL DISORDERS AND ADMINISTRATION SITE CONDITIONS",NA,"GENERAL DISORDERS AND ADMINISTRATION SITE CONDITIONS",NA,"MILD","N",NA,"PROBABLE","RECOVERED/RESOLVED","N","N","N","N","N","N","N","2014-02-10","2014-01-20","2014-02-08",10,29,2014-01-11,2014-07-10,NA,2014-07-11,2014-01-20,NA,"H",2014-02-08 23:59:59,NA,"H",2014-01-20,2014-02-08,10,29,20,"days",2014-01-20,54,"mg","MILD","PROBABLE","Y",1,NA,"1239","2014-01-11","2014-07-11","2014-01-11","2014-07-10",NA,"2014-07-11T15:40",NA,NA,"701",56,"YEARS","M","WHITE","HISPANIC OR LATINO","Xan_Hi","Xanomeline High Dose","Xan_Hi","Xanomeline High Dose","USA","2013-12-28",-14,"Xanomeline High Dose","Xanomeline High Dose",2014-01-11,"H",2014-07-10 23:59:59,"H",181,NA,"COMPLETED",NA,2014-01-11,NA,NA,NA,NA,NA,NA,2014-07-11,"Y","White","18-64","NA",NA,NA,NA,NA
"CDISCPILOT01","AE","01-701-1239",7,"E14","UPPER RESPIRATORY TRACT INFECTION","UPPER RESPIRATORY INFECTION",NA,"UPPER RESPIRATORY TRACT INFECTION",NA,"HLT_0520",NA,"HLGT_0489",NA,"INFECTIONS AND INFESTATIONS",NA,"INFECTIONS AND INFESTATIONS",NA,"MILD","N",NA,"NONE","NOT RECOVERED/NOT RESOLVED","N","N","N","N","N","N","N","2014-03-06","2014-02-20","2014-03-12",41,61,2014-01-11,2014-07-10,NA,2014-07-11,2014-02-20,NA,"H",2014-03-12 23:59:59,NA,"H",2014-02-20,2014-03-12,41,61,21,"days",2014-01-25,NA,NA,"MILD","NONE","Y",1,NA,"1239","2014-01-11","2014-07-11","2014-01-11","2014-07-10",NA,"2014-07-11T15:40",NA,NA,"701",56,"YEARS","M","WHITE","HISPANIC OR LATINO","Xan_Hi","Xanomeline High Dose","Xan_Hi","Xanomeline High Dose","USA","2013-12-28",-14,"Xanomeline High Dose","Xanomeline High Dose",2014-01-11,"H",2014-07-10 23:59:59,"H",181,NA,"COMPLETED",NA,2014-01-11,NA,NA,NA,NA,NA,NA,2014-07-11,"Y","White","18-64","NA",NA,NA,NA,NA
"CDISCPILOT01","AE","01-701-1239",8,"E14","UPPER RESPIRATORY TRACT INFECTION","UPPER RESPIRATORY INFECTION",NA,"UPPER RESPIRATORY TRACT INFECTION",NA,"HLT_0520",NA,"HLGT_0489",NA,"INFECTIONS AND INFESTATIONS",NA,"INFECTIONS AND INFESTATIONS",NA,"MILD","N",NA,"NONE","RECOVERED/RESOLVED","N","N","N","N","N","N","N","2014-04-02","2014-02-20","2014-03-12",41,61,2014-01-11,2014-07-10,NA,2014-07-11,2014-02-20,NA,"H",2014-03-12 23:59:59,NA,"H",2014-02-20,2014-03-12,41,61,21,"days",2014-01-25,NA,NA,"MILD","NONE","Y",1,NA,"1239","2014-01-11","2014-07-11","2014-01-11","2014-07-10",NA,"2014-07-11T15:40",NA,NA,"701",56,"YEARS","M","WHITE","HISPANIC OR LATINO","Xan_Hi","Xanomeline High Dose","Xan_Hi","Xanomeline High Dose","USA","2013-12-28",-14,"Xanomeline High Dose","Xanomeline High Dose",2014-01-11,"H",2014-07-10 23:59:59,"H",181,NA,"COMPLETED",NA,2014-01-11,NA,NA,NA,NA,NA,NA,2014-07-11,"Y","White","18-64","NA",NA,NA,NA,NA
"CDISCPILOT01","AE","01-701-1239",9,"E16","FATIGUE","FATIGUE",NA,"FATIGUE",NA,"HLT_0043",NA,"HLGT_0181",NA,"GENERAL DISORDERS AND ADMINISTRATION SITE CONDITIONS",NA,"GENERAL DISORDERS AND ADMINISTRATION SITE CONDITIONS",NA,"MILD","N",NA,"REMOTE","NOT RECOVERED/NOT RESOLVED","N","N","N","N","N","N","N","2014-04-02","2014-03",NA,NA,NA,2014-01-11,2014-07-10,NA,2014-07-11,2014-03-01,"D","H",NA,NA,NA,2014-03-01,NA,50,NA,NA,NA,2014-01-25,NA,NA,"MILD","REMOTE","Y",1,NA,"1239","2014-01-11","2014-07-11","2014-01-11","2014-07-10",NA,"2014-07-11T15:40",NA,NA,"701",56,"YEARS","M","WHITE","HISPANIC OR LATINO","Xan_Hi","Xanomeline High Dose","Xan_Hi","Xanomeline High Dose","USA","2013-12-28",-14,"Xanomeline High Dose","Xanomeline High Dose",2014-01-11,"H",2014-07-10 23:59:59,"H",181,NA,"COMPLETED",NA,2014-01-11,NA,NA,NA,NA,NA,NA,2014-07-11,"Y","White","18-64","NA",NA,NA,NA,NA
"CDISCPILOT01","AE","01-701-1239",10,"E17","HORDEOLUM","STYE",NA,"HORDEOLUM",NA,"HLT_0604",NA,"HLGT_0290",NA,"INFECTIONS AND INFESTATIONS",NA,"INFECTIONS AND INFESTATIONS",NA,"MILD","N",NA,"NONE","NOT RECOVERED/NOT RESOLVED","N","N","N","N","N","N","N","2014-05-02","2014-04",NA,NA,NA,2014-01-11,2014-07-10,NA,2014-07-11,2014-04-01,"D","H",NA,NA,NA,2014-04-01,NA,81,NA,NA,NA,2014-01-25,NA,NA,"MILD","NONE","Y",1,NA,"1239","2014-01-11","2014-07-11","2014-01-11","2014-07-10",NA,"2014-07-11T15:40",NA,NA,"701",56,"YEARS","M","WHITE","HISPANIC OR LATINO","Xan_Hi","Xanomeline High Dose","Xan_Hi","Xanomeline High Dose","USA","2013-12-28",-14,"Xanomeline High Dose","Xanomeline High Dose",2014-01-11,"H",2014-07-10 23:59:59,"H",181,NA,"COMPLETED",NA,2014-01-11,NA,NA,NA,NA,NA,NA,2014-07-11,"Y","White","18-64","NA",NA,NA,NA,NA
"CDISCPILOT01","AE","01-701-1275",1,"E04","NAUSEA","NAUSEA",NA,"NAUSEA",NA,"HLT_0742",NA,"HLGT_0326",NA,"GASTROINTESTINAL DISORDERS",NA,"GASTROINTESTINAL DISORDERS",NA,"MILD","N",NA,"POSSIBLE","NOT RECOVERED/NOT RESOLVED","N","N","N","N","N","N","N","2014-02-22","2014-02-13","2014-06-03",7,117,2014-02-07,2014-05-31,NA,2014-06-14,2014-02-13,NA,"H",2014-06-03 23:59:59,NA,"H",2014-02-13,2014-06-03,7,117,111,"days",2014-02-13,54,"mg","MILD","POSSIBLE","Y",1,"Y","1275","2014-02-07","2014-06-14","2014-02-07","2014-05-31",NA,"2014-06-14T12:35",NA,NA,"701",61,"YEARS","M","AMERICAN INDIAN OR ALASKA NATIVE","NOT HISPANIC OR LATINO","Xan_Hi","Xanomeline High Dose","Xan_Hi","Xanomeline High Dose","USA","2014-01-25",-13,"Xanomeline High Dose","Xanomeline High Dose",2014-02-07,"H",2014-05-31 23:59:59,"H",114,NA,"DISCONTINUED",NA,2014-02-07,NA,NA,NA,NA,NA,NA,2014-06-14,"Y","Non-white","18-64","NA",NA,NA,NA,NA
"CDISCPILOT01","AE","01-701-1275",11,"E04","NAUSEA","NAUSEA",NA,"NAUSEA",NA,"HLT_0742",NA,"HLGT_0326",NA,"GASTROINTESTINAL DISORDERS",NA,"GASTROINTESTINAL DISORDERS",NA,"MILD","N",NA,"POSSIBLE","RECOVERED/RESOLVED","N","N","N","N","N","N","N","2014-06-14","2014-02-13","2014-06-03",7,117,2014-02-07,2014-05-31,NA,2014-06-14,2014-02-13,NA,"H",2014-06-03 23:59:59,NA,"H",2014-02-13,2014-06-03,7,117,111,"days",2014-02-13,54,"mg","MILD","POSSIBLE","Y",1,NA,"1275","2014-02-07","2014-06-14","2014-02-07","2014-05-31",NA,"2014-06-14T12:35",NA,NA,"701",61,"YEARS","M","AMERICAN INDIAN OR ALASKA NATIVE","NOT HISPANIC OR LATINO","Xan_Hi","Xanomeline High Dose","Xan_Hi","Xanomeline High Dose","USA","2014-01-25",-13,"Xanomeline High Dose","Xanomeline High Dose",2014-02-07,"H",2014-05-31 23:59:59,"H",114,NA,"DISCONTINUED",NA,2014-02-07,NA,NA,NA,NA,NA,NA,2014-06-14,"Y","Non-white","18-64","NA",NA,NA,NA,NA
"CDISCPILOT01","AE","01-701-1275",2,"E05","VOMITING","VOMITING",NA,"VOMITING",NA,"HLT_0016",NA,"HLGT_0350",NA,"GASTROINTESTINAL DISORDERS",NA,"GASTROINTESTINAL DISORDERS",NA,"MILD","N",NA,"POSSIBLE","RECOVERED/RESOLVED","N","N","N","N","N","N","N","2014-03-07","2014-02-23","2014-02-23",17,17,2014-02-07,2014-05-31,NA,2014-06-14,2014-02-23,NA,"H",2014-02-23 23:59:59,NA,"H",2014-02-23,2014-02-23,17,17,1,"days",2014-02-22,NA,NA,"MILD","POSSIBLE","Y",1,NA,"1275","2014-02-07","2014-06-14","2014-02-07","2014-05-31",NA,"2014-06-14T12:35",NA,NA,"701",61,"YEARS","M","AMERICAN INDIAN OR ALASKA NATIVE","NOT HISPANIC OR LATINO","Xan_Hi","Xanomeline High Dose","Xan_Hi","Xanomeline High Dose","USA","2014-01-25",-13,"Xanomeline High Dose","Xanomeline High Dose",2014-02-07,"H",2014-05-31 23:59:59,"H",114,NA,"DISCONTINUED",NA,2014-02-07,NA,NA,NA,NA,NA,NA,2014-06-14,"Y","Non-white","18-64","NA",NA,NA,NA,NA
"CDISCPILOT01","AE","01-701-1275",3,"E06","ERYTHEMA","ERYTHEMA",NA,"ERYTHEMA",NA,"HLT_0284",NA,"HLGT_0192",NA,"SKIN AND SUBCUTANEOUS TISSUE DISORDERS",NA,"SKIN AND SUBCUTANEOUS TISSUE DISORDERS",NA,"MILD","N",NA,"POSSIBLE","NOT RECOVERED/NOT RESOLVED","N","N","N","N","N","N","N","2014-03-07","2014-02-24","2014-06-12",18,126,2014-02-07,2014-05-31,NA,2014-06-14,2014-02-24,NA,"H",2014-06-12 23:59:59,NA,"H",2014-02-24,2014-06-12,18,126,109,"days",2014-02-22,NA,NA,"MILD","POSSIBLE","Y",1,NA,"1275","2014-02-07","2014-06-14","2014-02-07","2014-05-31",NA,"2014-06-14T12:35",NA,NA,"701",61,"YEARS","M","AMERICAN INDIAN OR ALASKA NATIVE","NOT HISPANIC OR LATINO","Xan_Hi","Xanomeline High Dose","Xan_Hi","Xanomeline High Dose","USA","2014-01-25",-13,"Xanomeline High Dose","Xanomeline High Dose",2014-02-07,"H",2014-05-31 23:59:59,"H",114,NA,"DISCONTINUED",NA,2014-02-07,NA,NA,NA,NA,NA,NA,2014-06-14,"Y","Non-white","18-64","NA",NA,NA,NA,NA
"CDISCPILOT01","AE","01-701-1275",4,"E07","SALIVARY HYPERSECRETION","HYPERSALIVATION",NA,"SALIVARY HYPERSECRETION",NA,"HLT_0374",NA,"HLGT_0488",NA,"GASTROINTESTINAL DISORDERS",NA,"GASTROINTESTINAL DISORDERS",NA,"MILD","N",NA,"POSSIBLE","NOT RECOVERED/NOT RESOLVED","N","N","N","N","N","N","N","2014-03-07","2014-02-24","2014-06-03",18,117,2014-02-07,2014-05-31,NA,2014-06-14,2014-02-24,NA,"H",2014-06-03 23:59:59,NA,"H",2014-02-24,2014-06-03,18,117,100,"days",2014-02-22,NA,NA,"MILD","POSSIBLE","Y",1,NA,"1275","2014-02-07","2014-06-14","2014-02-07","2014-05-31",NA,"2014-06-14T12:35",NA,NA,"701",61,"YEARS","M","AMERICAN INDIAN OR ALASKA NATIVE","NOT HISPANIC OR LATINO","Xan_Hi","Xanomeline High Dose","Xan_Hi","Xanomeline High Dose","USA","2014-01-25",-13,"Xanomeline High Dose","Xanomeline High Dose",2014-02-07,"H",2014-05-31 23:59:59,"H",114,NA,"DISCONTINUED",NA,2014-02-07,NA,NA,NA,NA,NA,NA,2014-06-14,"Y","Non-white","18-64","NA",NA,NA,NA,NA
"CDISCPILOT01","AE","01-701-1275",5,"E08","PAROSMIA","STRANGE SMELL SENSATION",NA,"PAROSMIA",NA,"HLT_0258",NA,"HLGT_0471",NA,"NERVOUS SYSTEM DISORDERS",NA,"NERVOUS SYSTEM DISORDERS",NA,"MILD","N",NA,"POSSIBLE","NOT RECOVERED/NOT RESOLVED","N","N","N","N","N","N","N","2014-03-07","2014-02-24","2014-06-03",18,117,2014-02-07,2014-05-31,NA,2014-06-14,2014-02-24,NA,"H",2014-06-03 23:59:59,NA,"H",2014-02-24,2014-06-03,18,117,100,"days",2014-02-22,NA,NA,"MILD","POSSIBLE","Y",1,NA,"1275","2014-02-07","2014-06-14","2014-02-07","2014-05-31",NA,"2014-06-14T12:35",NA,NA,"701",61,"YEARS","M","AMERICAN INDIAN OR ALASKA NATIVE","NOT HISPANIC OR LATINO","Xan_Hi","Xanomeline High Dose","Xan_Hi","Xanomeline High Dose","USA","2014-01-25",-13,"Xanomeline High Dose","Xanomeline High Dose",2014-02-07,"H",2014-05-31 23:59:59,"H",114,NA,"DISCONTINUED",NA,2014-02-07,NA,NA,NA,NA,NA,NA,2014-06-14,"Y","Non-white","18-64","NA",NA,NA,NA,NA
"CDISCPILOT01","AE","01-701-1275",6,"E11","PRURITUS","ITCHING",NA,"PRURITUS",NA,"HLT_0778",NA,"HLGT_0695",NA,"SKIN AND SUBCUTANEOUS TISSUE DISORDERS",NA,"SKIN AND SUBCUTANEOUS TISSUE DISORDERS",NA,"MILD","N",NA,"POSSIBLE","NOT RECOVERED/NOT RESOLVED","N","N","N","N","N","N","N","2014-03-07","2014-02-24","2014-06-12",18,126,2014-02-07,2014-05-31,NA,2014-06-14,2014-02-24,NA,"H",2014-06-12 23:59:59,NA,"H",2014-02-24,2014-06-12,18,126,109,"days",2014-02-22,NA,NA,"MILD","POSSIBLE","Y",1,NA,"1275","2014-02-07","2014-06-14","2014-02-07","2014-05-31",NA,"2014-06-14T12:35",NA,NA,"701",61,"YEARS","M","AMERICAN INDIAN OR ALASKA NATIVE","NOT HISPANIC OR LATINO","Xan_Hi","Xanomeline High Dose","Xan_Hi","Xanomeline High Dose","USA","2014-01-25",-13,"Xanomeline High Dose","Xanomeline High Dose",2014-02-07,"H",2014-05-31 23:59:59,"H",114,NA,"DISCONTINUED",NA,2014-02-07,NA,NA,NA,NA,NA,NA,2014-06-14,"Y","Non-white","18-64","NA",NA,NA,NA,NA
"CDISCPILOT01","AE","01-701-1275",12,"E06","ERYTHEMA","ERYTHEMA",NA,"ERYTHEMA",NA,"HLT_0284",NA,"HLGT_0192",NA,"SKIN AND SUBCUTANEOUS TISSUE DISORDERS",NA,"SKIN AND SUBCUTANEOUS TISSUE DISORDERS",NA,"MILD","N",NA,"POSSIBLE","RECOVERED/RESOLVED","N","N","N","N","N","N","N","2014-06-14","2014-02-24","2014-06-12",18,126,2014-02-07,2014-05-31,NA,2014-06-14,2014-02-24,NA,"H",2014-06-12 23:59:59,NA,"H",2014-02-24,2014-06-12,18,126,109,"days",2014-02-22,NA,NA,"MILD","POSSIBLE","Y",1,NA,"1275","2014-02-07","2014-06-14","2014-02-07","2014-05-31",NA,"2014-06-14T12:35",NA,NA,"701",61,"YEARS","M","AMERICAN INDIAN OR ALASKA NATIVE","NOT HISPANIC OR LATINO","Xan_Hi","Xanomeline High Dose","Xan_Hi","Xanomeline High Dose","USA","2014-01-25",-13,"Xanomeline High Dose","Xanomeline High Dose",2014-02-07,"H",2014-05-31 23:59:59,"H",114,NA,"DISCONTINUED",NA,2014-02-07,NA,NA,NA,NA,NA,NA,2014-06-14,"Y","Non-white","18-64","NA",NA,NA,NA,NA
"CDISCPILOT01","AE","01-701-1275",13,"E07","SALIVARY HYPERSECRETION","HYPERSALIVATION",NA,"SALIVARY HYPERSECRETION",NA,"HLT_0374",NA,"HLGT_0488",NA,"GASTROINTESTINAL DISORDERS",NA,"GASTROINTESTINAL DISORDERS",NA,"MILD","N",NA,"POSSIBLE","RECOVERED/RESOLVED","N","N","N","N","N","N","N","2014-06-14","2014-02-24","2014-06-03",18,117,2014-02-07,2014-05-31,NA,2014-06-14,2014-02-24,NA,"H",2014-06-03 23:59:59,NA,"H",2014-02-24,2014-06-03,18,117,100,"days",2014-02-22,NA,NA,"MILD","POSSIBLE","Y",1,NA,"1275","2014-02-07","2014-06-14","2014-02-07","2014-05-31",NA,"2014-06-14T12:35",NA,NA,"701",61,"YEARS","M","AMERICAN INDIAN OR ALASKA NATIVE","NOT HISPANIC OR LATINO","Xan_Hi","Xanomeline High Dose","Xan_Hi","Xanomeline High Dose","USA","2014-01-25",-13,"Xanomeline High Dose","Xanomeline High Dose",2014-02-07,"H",2014-05-31 23:59:59,"H",114,NA,"DISCONTINUED",NA,2014-02-07,NA,NA,NA,NA,NA,NA,2014-06-14,"Y","Non-white","18-64","NA",NA,NA,NA,NA
"CDISCPILOT01","AE","01-701-1275",14,"E08","PAROSMIA","STRANGE SMELL SENSATION",NA,"PAROSMIA",NA,"HLT_0258",NA,"HLGT_0471",NA,"NERVOUS SYSTEM DISORDERS",NA,"NERVOUS SYSTEM DISORDERS",NA,"MILD","N",NA,"POSSIBLE","RECOVERED/RESOLVED","N","N","N","N","N","N","N","2014-06-14","2014-02-24","2014-06-03",18,117,2014-02-07,2014-05-31,NA,2014-06-14,2014-02-24,NA,"H",2014-06-03 23:59:59,NA,"H",2014-02-24,2014-06-03,18,117,100,"days",2014-02-22,NA,NA,"MILD","POSSIBLE","Y",1,NA,"1275","2014-02-07","2014-06-14","2014-02-07","2014-05-31",NA,"2014-06-14T12:35",NA,NA,"701",61,"YEARS","M","AMERICAN INDIAN OR ALASKA NATIVE","NOT HISPANIC OR LATINO","Xan_Hi","Xanomeline High Dose","Xan_Hi","Xanomeline High Dose","USA","2014-01-25",-13,"Xanomeline High Dose","Xanomeline High Dose",2014-02-07,"H",2014-05-31 23:59:59,"H",114,NA,"DISCONTINUED",NA,2014-02-07,NA,NA,NA,NA,NA,NA,2014-06-14,"Y","Non-white","18-64","NA",NA,NA,NA,NA
"CDISCPILOT01","AE","01-701-1275",15,"E11","PRURITUS","ITCHING",NA,"PRURITUS",NA,"HLT_0778",NA,"HLGT_0695",NA,"SKIN AND SUBCUTANEOUS TISSUE DISORDERS",NA,"SKIN AND SUBCUTANEOUS TISSUE DISORDERS",NA,"MILD","N",NA,"POSSIBLE","RECOVERED/RESOLVED","N","N","N","N","N","N","N","2014-06-14","2014-02-24","2014-06-12",18,126,2014-02-07,2014-05-31,NA,2014-06-14,2014-02-24,NA,"H",2014-06-12 23:59:59,NA,"H",2014-02-24,2014-06-12,18,126,109,"days",2014-02-22,NA,NA,"MILD","POSSIBLE","Y",1,NA,"1275","2014-02-07","2014-06-14","2014-02-07","2014-05-31",NA,"2014-06-14T12:35",NA,NA,"701",61,"YEARS","M","AMERICAN INDIAN OR ALASKA NATIVE","NOT HISPANIC OR LATINO","Xan_Hi","Xanomeline High Dose","Xan_Hi","Xanomeline High Dose","USA","2014-01-25",-13,"Xanomeline High Dose","Xanomeline High Dose",2014-02-07,"H",2014-05-31 23:59:59,"H",114,NA,"DISCONTINUED",NA,2014-02-07,NA,NA,NA,NA,NA,NA,2014-06-14,"Y","Non-white","18-64","NA",NA,NA,NA,NA
"CDISCPILOT01","AE","01-701-1275",7,"E09","COUGH","COUGH",NA,"COUGH",NA,"HLT_0701",NA,"HLGT_0280",NA,"RESPIRATORY, THORACIC AND MEDIASTINAL DISORDERS",NA,"RESPIRATORY, THORACIC AND MEDIASTINAL DISORDERS",NA,"MILD","N",NA,"NONE","NOT RECOVERED/NOT RESOLVED","N","N","N","N","N","N","N","2014-03-22","2014-03-12","2014-03-27",34,49,2014-02-07,2014-05-31,NA,2014-06-14,2014-03-12,NA,"H",2014-03-27 23:59:59,NA,"H",2014-03-12,2014-03-27,34,49,16,"days",2014-02-22,NA,NA,"MILD","NONE","Y",1,NA,"1275","2014-02-07","2014-06-14","2014-02-07","2014-05-31",NA,"2014-06-14T12:35",NA,NA,"701",61,"YEARS","M","AMERICAN INDIAN OR ALASKA NATIVE","NOT HISPANIC OR LATINO","Xan_Hi","Xanomeline High Dose","Xan_Hi","Xanomeline High Dose","USA","2014-01-25",-13,"Xanomeline High Dose","Xanomeline High Dose",2014-02-07,"H",2014-05-31 23:59:59,"H",114,NA,"DISCONTINUED",NA,2014-02-07,NA,NA,NA,NA,NA,NA,2014-06-14,"Y","Non-white","18-64","NA",NA,NA,NA,NA
"CDISCPILOT01","AE","01-701-1275",8,"E10","NASAL CONGESTION","NASAL CONGESTION",NA,"NASAL CONGESTION",NA,"HLT_0118",NA,"HLGT_0549",NA,"RESPIRATORY, THORACIC AND MEDIASTINAL DISORDERS",NA,"RESPIRATORY, THORACIC AND MEDIASTINAL DISORDERS",NA,"MILD","N",NA,"NONE","NOT RECOVERED/NOT RESOLVED","N","N","N","N","N","N","N","2014-03-22","2014-03-12","2014-03-27",34,49,2014-02-07,2014-05-31,NA,2014-06-14,2014-03-12,NA,"H",2014-03-27 23:59:59,NA,"H",2014-03-12,2014-03-27,34,49,16,"days",2014-02-22,NA,NA,"MILD","NONE","Y",1,NA,"1275","2014-02-07","2014-06-14","2014-02-07","2014-05-31",NA,"2014-06-14T12:35",NA,NA,"701",61,"YEARS","M","AMERICAN INDIAN OR ALASKA NATIVE","NOT HISPANIC OR LATINO","Xan_Hi","Xanomeline High Dose","Xan_Hi","Xanomeline High Dose","USA","2014-01-25",-13,"Xanomeline High Dose","Xanomeline High Dose",2014-02-07,"H",2014-05-31 23:59:59,"H",114,NA,"DISCONTINUED",NA,2014-02-07,NA,NA,NA,NA,NA,NA,2014-06-14,"Y","Non-white","18-64","NA",NA,NA,NA,NA
"CDISCPILOT01","AE","01-701-1275",9,"E09","COUGH","COUGH",NA,"COUGH",NA,"HLT_0701",NA,"HLGT_0280",NA,"RESPIRATORY, THORACIC AND MEDIASTINAL DISORDERS",NA,"RESPIRATORY, THORACIC AND MEDIASTINAL DISORDERS",NA,"MILD","N",NA,"NONE","RECOVERED/RESOLVED","N","N","N","N","N","N","N","2014-04-05","2014-03-12","2014-03-27",34,49,2014-02-07,2014-05-31,NA,2014-06-14,2014-03-12,NA,"H",2014-03-27 23:59:59,NA,"H",2014-03-12,2014-03-27,34,49,16,"days",2014-02-22,NA,NA,"MILD","NONE","Y",1,NA,"1275","2014-02-07","2014-06-14","2014-02-07","2014-05-31",NA,"2014-06-14T12:35",NA,NA,"701",61,"YEARS","M","AMERICAN INDIAN OR ALASKA NATIVE","NOT HISPANIC OR LATINO","Xan_Hi","Xanomeline High Dose","Xan_Hi","Xanomeline High Dose","USA","2014-01-25",-13,"Xanomeline High Dose","Xanomeline High Dose",2014-02-07,"H",2014-05-31 23:59:59,"H",114,NA,"DISCONTINUED",NA,2014-02-07,NA,NA,NA,NA,NA,NA,2014-06-14,"Y","Non-white","18-64","NA",NA,NA,NA,NA
"CDISCPILOT01","AE","01-701-1275",10,"E10","NASAL CONGESTION","NASAL CONGESTION",NA,"NASAL CONGESTION",NA,"HLT_0118",NA,"HLGT_0549",NA,"RESPIRATORY, THORACIC AND MEDIASTINAL DISORDERS",NA,"RESPIRATORY, THORACIC AND MEDIASTINAL DISORDERS",NA,"MILD","N",NA,"NONE","RECOVERED/RESOLVED","N","N","N","N","N","N","N","2014-04-05","2014-03-12","2014-03-27",34,49,2014-02-07,2014-05-31,NA,2014-06-14,2014-03-12,NA,"H",2014-03-27 23:59:59,NA,"H",2014-03-12,2014-03-27,34,49,16,"days",2014-02-22,NA,NA,"MILD","NONE","Y",1,NA,"1275","2014-02-07","2014-06-14","2014-02-07","2014-05-31",NA,"2014-06-14T12:35",NA,NA,"701",61,"YEARS","M","AMERICAN INDIAN OR ALASKA NATIVE","NOT HISPANIC OR LATINO","Xan_Hi","Xanomeline High Dose","Xan_Hi","Xanomeline High Dose","USA","2014-01-25",-13,"Xanomeline High Dose","Xanomeline High Dose",2014-02-07,"H",2014-05-31 23:59:59,"H",114,NA,"DISCONTINUED",NA,2014-02-07,NA,NA,NA,NA,NA,NA,2014-06-14,"Y","Non-white","18-64","NA",NA,NA,NA,NA
"CDISCPILOT01","AE","01-701-1287",1,"E02","SALIVARY HYPERSECRETION","INCREASED SALIVATION",NA,"SALIVARY HYPERSECRETION",NA,"HLT_0374",NA,"HLGT_0488",NA,"GASTROINTESTINAL DISORDERS",NA,"GASTROINTESTINAL DISORDERS",NA,"MILD","N",NA,"NONE","NOT RECOVERED/NOT RESOLVED","N","N","N","N","N","N","N","2014-02-11","2014-01-26",NA,2,NA,2014-01-25,2014-07-26,NA,2014-07-26,2014-01-26,NA,"H",NA,NA,NA,2014-01-26,NA,2,NA,NA,NA,2014-01-26,54,"mg","MILD","NONE","Y",1,"Y","1287","2014-01-25","2014-07-26","2014-01-25","2014-07-26",NA,"2014-07-26T13:15",NA,NA,"701",56,"YEARS","F","WHITE","HISPANIC OR LATINO","Xan_Hi","Xanomeline High Dose","Xan_Hi","Xanomeline High Dose","USA","2014-01-17",-8,"Xanomeline High Dose","Xanomeline High Dose",2014-01-25,"H",2014-07-26 23:59:59,"H",183,NA,"COMPLETED",NA,2014-01-25,NA,NA,NA,NA,NA,NA,2014-07-26,"Y","White","18-64","NA",NA,NA,NA,NA
"CDISCPILOT01","AE","01-701-1287",2,"E03","APPLICATION SITE PRURITUS","APPLICATION SITE ITCHING",NA,"APPLICATION SITE PRURITUS",NA,"HLT_0317",NA,"HLGT_0338",NA,"GENERAL DISORDERS AND ADMINISTRATION SITE CONDITIONS",NA,"GENERAL DISORDERS AND ADMINISTRATION SITE CONDITIONS",NA,"MILD","N",NA,"POSSIBLE","NOT RECOVERED/NOT RESOLVED","N","N","N","N","N","N","N","2014-03-06","2014-02-22",NA,29,NA,2014-01-25,2014-07-26,NA,2014-07-26,2014-02-22,NA,"H",NA,NA,NA,2014-02-22,NA,29,NA,NA,NA,2014-02-11,NA,NA,"MILD","POSSIBLE","Y",1,NA,"1287","2014-01-25","2014-07-26","2014-01-25","2014-07-26",NA,"2014-07-26T13:15",NA,NA,"701",56,"YEARS","F","WHITE","HISPANIC OR LATINO","Xan_Hi","Xanomeline High Dose","Xan_Hi","Xanomeline High Dose","USA","2014-01-17",-8,"Xanomeline High Dose","Xanomeline High Dose",2014-01-25,"H",2014-07-26 23:59:59,"H",183,NA,"COMPLETED",NA,2014-01-25,NA,NA,NA,NA,NA,NA,2014-07-26,"Y","White","18-64","NA",NA,NA,NA,NA
"CDISCPILOT01","AE","01-701-1287",3,"E04","APPLICATION SITE ERYTHEMA","APPLICATION SITE REDNESS",NA,"APPLICATION SITE ERYTHEMA",NA,"HLT_0617",NA,"HLGT_0152",NA,"GENERAL DISORDERS AND ADMINISTRATION SITE CONDITIONS",NA,"GENERAL DISORDERS AND ADMINISTRATION SITE CONDITIONS",NA,"MILD","N",NA,"PROBABLE","NOT RECOVERED/NOT RESOLVED","N","N","N","N","N","N","N","2014-03-21","2014-03-09",NA,44,NA,2014-01-25,2014-07-26,NA,2014-07-26,2014-03-09,NA,"H",NA,NA,NA,2014-03-09,NA,44,NA,NA,NA,2014-02-11,NA,NA,"MILD","PROBABLE","Y",1,NA,"1287","2014-01-25","2014-07-26","2014-01-25","2014-07-26",NA,"2014-07-26T13:15",NA,NA,"701",56,"YEARS","F","WHITE","HISPANIC OR LATINO","Xan_Hi","Xanomeline High Dose","Xan_Hi","Xanomeline High Dose","USA","2014-01-17",-8,"Xanomeline High Dose","Xanomeline High Dose",2014-01-25,"H",2014-07-26 23:59:59,"H",183,NA,"COMPLETED",NA,2014-01-25,NA,NA,NA,NA,NA,NA,2014-07-26,"Y","White","18-64","NA",NA,NA,NA,NA
"CDISCPILOT01","AE","01-701-1287",4,"E05","RHINORRHOEA","RUNNY NOSE",NA,"RHINORRHOEA",NA,"HLT_0635",NA,"HLGT_0460",NA,"RESPIRATORY, THORACIC AND MEDIASTINAL DISORDERS",NA,"RESPIRATORY, THORACIC AND MEDIASTINAL DISORDERS",NA,"MILD","N",NA,"NONE","NOT RECOVERED/NOT RESOLVED","N","N","N","N","N","N","N","2014-07-12","2014-07-09","2014-07-12",166,169,2014-01-25,2014-07-26,NA,2014-07-26,2014-07-09,NA,"H",2014-07-12 23:59:59,NA,"H",2014-07-09,2014-07-12,166,169,4,"days",2014-02-11,NA,NA,"MILD","NONE","Y",1,NA,"1287","2014-01-25","2014-07-26","2014-01-25","2014-07-26",NA,"2014-07-26T13:15",NA,NA,"701",56,"YEARS","F","WHITE","HISPANIC OR LATINO","Xan_Hi","Xanomeline High Dose","Xan_Hi","Xanomeline High Dose","USA","2014-01-17",-8,"Xanomeline High Dose","Xanomeline High Dose",2014-01-25,"H",2014-07-26 23:59:59,"H",183,NA,"COMPLETED",NA,2014-01-25,NA,NA,NA,NA,NA,NA,2014-07-26,"Y","White","18-64","NA",NA,NA,NA,NA
"CDISCPILOT01","AE","01-701-1287",5,"E05","RHINORRHOEA","RUNNY NOSE",NA,"RHINORRHOEA",NA,"HLT_0635",NA,"HLGT_0460",NA,"RESPIRATORY, THORACIC AND MEDIASTINAL DISORDERS",NA,"RESPIRATORY, THORACIC AND MEDIASTINAL DISORDERS",NA,"MILD","N",NA,"NONE","RECOVERED/RESOLVED","N","N","N","N","N","N","N","2014-07-26","2014-07-09","2014-07-12",166,169,2014-01-25,2014-07-26,NA,2014-07-26,2014-07-09,NA,"H",2014-07-12 23:59:59,NA,"H",2014-07-09,2014-07-12,166,169,4,"days",2014-02-11,NA,NA,"MILD","NONE","Y",1,NA,"1287","2014-01-25","2014-07-26","2014-01-25","2014-07-26",NA,"2014-07-26T13:15",NA,NA,"701",56,"YEARS","F","WHITE","HISPANIC OR LATINO","Xan_Hi","Xanomeline High Dose","Xan_Hi","Xanomeline High Dose","USA","2014-01-17",-8,"Xanomeline High Dose","Xanomeline High Dose",2014-01-25,"H",2014-07-26 23:59:59,"H",183,NA,"COMPLETED",NA,2014-01-25,NA,NA,NA,NA,NA,NA,2014-07-26,"Y","White","18-64","NA",NA,NA,NA,NA
"CDISCPILOT01","AE","01-701-1294",4,"E07","APPLICATION SITE PRURITUS","APPLICATION SITE ITCHING",NA,"APPLICATION SITE PRURITUS",NA,"HLT_0317",NA,"HLGT_0338",NA,"GENERAL DISORDERS AND ADMINISTRATION SITE CONDITIONS",NA,"GENERAL DISORDERS AND ADMINISTRATION SITE CONDITIONS",NA,"MODERATE","N",NA,"POSSIBLE","NOT RECOVERED/NOT RESOLVED","N","N","N","N","N","N","N","2013-06-14","2013-05-19",NA,57,NA,2013-03-24,2013-06-14,NA,2013-06-14,2013-05-19,NA,"H",NA,NA,NA,2013-05-19,NA,57,NA,NA,NA,2013-05-19,54,"mg","MODERATE","POSSIBLE","Y",2,"Y","1294","2013-03-24","2013-06-14","2013-03-24","2013-06-14",NA,"2013-10-08",NA,NA,"701",67,"YEARS","M","WHITE","NOT HISPANIC OR LATINO","Xan_Lo","Xanomeline Low Dose","Xan_Lo","Xanomeline Low Dose","USA","2013-03-17",-7,"Xanomeline Low Dose","Xanomeline Low Dose",2013-03-24,"H",2013-06-14 23:59:59,"H",83,NA,"DISCONTINUED",2013-10-08,2013-03-24,NA,NA,NA,NA,NA,NA,2013-06-14,"Y","White",">64","NA",NA,NA,NA,NA
"CDISCPILOT01","AE","01-701-1294",5,"E08","APPLICATION SITE ERYTHEMA","APPLICATION SITE REDNESS",NA,"APPLICATION SITE ERYTHEMA",NA,"HLT_0617",NA,"HLGT_0152",NA,"GENERAL DISORDERS AND ADMINISTRATION SITE CONDITIONS",NA,"GENERAL DISORDERS AND ADMINISTRATION SITE CONDITIONS",NA,"MODERATE","N",NA,"PROBABLE","NOT RECOVERED/NOT RESOLVED","N","N","N","N","N","N","N","2013-06-14","2013-05-19",NA,57,NA,2013-03-24,2013-06-14,NA,2013-06-14,2013-05-19,NA,"H",NA,NA,NA,2013-05-19,NA,57,NA,NA,NA,2013-05-19,54,"mg","MODERATE","PROBABLE","Y",2,NA,"1294","2013-03-24","2013-06-14","2013-03-24","2013-06-14",NA,"2013-10-08",NA,NA,"701",67,"YEARS","M","WHITE","NOT HISPANIC OR LATINO","Xan_Lo","Xanomeline Low Dose","Xan_Lo","Xanomeline Low Dose","USA","2013-03-17",-7,"Xanomeline Low Dose","Xanomeline Low Dose",2013-03-24,"H",2013-06-14 23:59:59,"H",83,NA,"DISCONTINUED",2013-10-08,2013-03-24,NA,NA,NA,NA,NA,NA,2013-06-14,"Y","White",">64","NA",NA,NA,NA,NA
"CDISCPILOT01","AE","01-701-1294",6,"E09","RASH ERYTHEMATOUS","ERYTHEMATOUS RASH",NA,"RASH ERYTHEMATOUS",NA,"HLT_0336",NA,"HLGT_0701",NA,"SKIN AND SUBCUTANEOUS TISSUE DISORDERS",NA,"SKIN AND SUBCUTANEOUS TISSUE DISORDERS",NA,"MODERATE","N",NA,"PROBABLE","NOT RECOVERED/NOT RESOLVED","N","N","N","N","N","N","N","2013-06-14","2013-06-10",NA,79,NA,2013-03-24,2013-06-14,NA,2013-06-14,2013-06-10,NA,"H",NA,NA,NA,2013-06-10,NA,79,NA,NA,NA,2013-06-10,54,"mg","MODERATE","PROBABLE","Y",2,NA,"1294","2013-03-24","2013-06-14","2013-03-24","2013-06-14",NA,"2013-10-08",NA,NA,"701",67,"YEARS","M","WHITE","NOT HISPANIC OR LATINO","Xan_Lo","Xanomeline Low Dose","Xan_Lo","Xanomeline Low Dose","USA","2013-03-17",-7,"Xanomeline Low Dose","Xanomeline Low Dose",2013-03-24,"H",2013-06-14 23:59:59,"H",83,NA,"DISCONTINUED",2013-10-08,2013-03-24,NA,NA,NA,NA,NA,NA,2013-06-14,"Y","White",">64","NA",NA,NA,NA,NA
"CDISCPILOT01","AE","01-701-1294",2,"E07","APPLICATION SITE PRURITUS","APPLICATION SITE ITCHING",NA,"APPLICATION SITE PRURITUS",NA,"HLT_0317",NA,"HLGT_0338",NA,"GENERAL DISORDERS AND ADMINISTRATION SITE CONDITIONS",NA,"GENERAL DISORDERS AND ADMINISTRATION SITE CONDITIONS",NA,"MILD","N",NA,"POSSIBLE","NOT RECOVERED/NOT RESOLVED","N","N","N","N","N","N","N","2013-05-22","2013-05-19",NA,57,NA,2013-03-24,2013-06-14,NA,2013-06-14,2013-05-19,NA,"H",NA,NA,NA,2013-05-19,NA,57,NA,NA,NA,2013-05-19,54,"mg","MILD","POSSIBLE","Y",1,NA,"1294","2013-03-24","2013-06-14","2013-03-24","2013-06-14",NA,"2013-10-08",NA,NA,"701",67,"YEARS","M","WHITE","NOT HISPANIC OR LATINO","Xan_Lo","Xanomeline Low Dose","Xan_Lo","Xanomeline Low Dose","USA","2013-03-17",-7,"Xanomeline Low Dose","Xanomeline Low Dose",2013-03-24,"H",2013-06-14 23:59:59,"H",83,NA,"DISCONTINUED",2013-10-08,2013-03-24,NA,NA,NA,NA,NA,NA,2013-06-14,"Y","White",">64","NA",NA,NA,NA,NA
"CDISCPILOT01","AE","01-701-1294",3,"E08","APPLICATION SITE ERYTHEMA","APPLICATION SITE REDNESS",NA,"APPLICATION SITE ERYTHEMA",NA,"HLT_0617",NA,"HLGT_0152",NA,"GENERAL DISORDERS AND ADMINISTRATION SITE CONDITIONS",NA,"GENERAL DISORDERS AND ADMINISTRATION SITE CONDITIONS",NA,"MILD","N",NA,"PROBABLE","NOT RECOVERED/NOT RESOLVED","N","N","N","N","N","N","N","2013-05-22","2013-05-19",NA,57,NA,2013-03-24,2013-06-14,NA,2013-06-14,2013-05-19,NA,"H",NA,NA,NA,2013-05-19,NA,57,NA,NA,NA,2013-05-19,54,"mg","MILD","PROBABLE","Y",1,NA,"1294","2013-03-24","2013-06-14","2013-03-24","2013-06-14",NA,"2013-10-08",NA,NA,"701",67,"YEARS","M","WHITE","NOT HISPANIC OR LATINO","Xan_Lo","Xanomeline Low Dose","Xan_Lo","Xanomeline Low Dose","USA","2013-03-17",-7,"Xanomeline Low Dose","Xanomeline Low Dose",2013-03-24,"H",2013-06-14 23:59:59,"H",83,NA,"DISCONTINUED",2013-10-08,2013-03-24,NA,NA,NA,NA,NA,NA,2013-06-14,"Y","White",">64","NA",NA,NA,NA,NA
"CDISCPILOT01","AE","01-701-1302",9,"E17","DIZZINESS","DIZZY",NA,"DIZZINESS",NA,"HLT_0619",NA,"HLGT_0751",NA,"NERVOUS SYSTEM DISORDERS",NA,"NERVOUS SYSTEM DISORDERS",NA,"MODERATE","N",NA,"REMOTE","RECOVERED/RESOLVED","N","N","N","N","N","N","N","2013-09-15","2013-09-02","2013-09-03",5,6,2013-08-29,2013-11-05,NA,2013-11-05,2013-09-02,NA,"H",2013-09-03 23:59:59,NA,"H",2013-09-02,2013-09-03,5,6,2,"days",2013-09-02,54,"mg","MODERATE","REMOTE","Y",2,"Y","1302","2013-08-29","2013-11-05","2013-08-29","2013-11-05",NA,"2014-02-13",NA,NA,"701",61,"YEARS","M","WHITE","NOT HISPANIC OR LATINO","Xan_Hi","Xanomeline High Dose","Xan_Hi","Xanomeline High Dose","USA","2013-08-20",-9,"Xanomeline High Dose","Xanomeline High Dose",2013-08-29,"H",2013-11-05 23:59:59,"H",69,NA,"DISCONTINUED",2014-02-13,2013-08-29,NA,NA,NA,NA,NA,NA,2013-11-05,"Y","White","18-64","NA",NA,NA,NA,NA
"CDISCPILOT01","AE","01-701-1302",18,"E16","MALAISE","MALAISE",NA,"MALAISE",NA,"HLT_0456",NA,"HLGT_0178",NA,"GENERAL DISORDERS AND ADMINISTRATION SITE CONDITIONS",NA,"GENERAL DISORDERS AND ADMINISTRATION SITE CONDITIONS",NA,"MODERATE","N",NA,"REMOTE","NOT RECOVERED/NOT RESOLVED","N","N","N","N","N","N","N","2013-11-05","2013-09-02",NA,5,NA,2013-08-29,2013-11-05,NA,2013-11-05,2013-09-02,NA,"H",NA,NA,NA,2013-09-02,NA,5,NA,NA,NA,2013-09-02,54,"mg","MODERATE","REMOTE","Y",2,NA,"1302","2013-08-29","2013-11-05","2013-08-29","2013-11-05",NA,"2014-02-13",NA,NA,"701",61,"YEARS","M","WHITE","NOT HISPANIC OR LATINO","Xan_Hi","Xanomeline High Dose","Xan_Hi","Xanomeline High Dose","USA","2013-08-20",-9,"Xanomeline High Dose","Xanomeline High Dose",2013-08-29,"H",2013-11-05 23:59:59,"H",69,NA,"DISCONTINUED",2014-02-13,2013-08-29,NA,NA,NA,NA,NA,NA,2013-11-05,"Y","White","18-64","NA",NA,NA,NA,NA
"CDISCPILOT01","AE","01-701-1302",1,"E21","APPLICATION SITE PERSPIRATION","APPLICATION SITE PERSPIRATION",NA,"APPLICATION SITE PERSPIRATION",NA,"HLT_0283",NA,"HLGT_0403",NA,"GENERAL DISORDERS AND ADMINISTRATION SITE CONDITIONS",NA,"GENERAL DISORDERS AND ADMINISTRATION SITE CONDITIONS",NA,"MILD","N",NA,"POSSIBLE","NOT RECOVERED/NOT RESOLVED","N","N","N","N","N","N","N","2013-09-15","2013-08-30",NA,2,NA,2013-08-29,2013-11-05,NA,2013-11-05,2013-08-30,NA,"H",NA,NA,NA,2013-08-30,NA,2,NA,NA,NA,2013-08-30,54,"mg","MILD","POSSIBLE","Y",1,NA,"1302","2013-08-29","2013-11-05","2013-08-29","2013-11-05",NA,"2014-02-13",NA,NA,"701",61,"YEARS","M","WHITE","NOT HISPANIC OR LATINO","Xan_Hi","Xanomeline High Dose","Xan_Hi","Xanomeline High Dose","USA","2013-08-20",-9,"Xanomeline High Dose","Xanomeline High Dose",2013-08-29,"H",2013-11-05 23:59:59,"H",69,NA,"DISCONTINUED",2014-02-13,2013-08-29,NA,NA,NA,NA,NA,NA,2013-11-05,"Y","White","18-64","NA",NA,NA,NA,NA
"CDISCPILOT01","AE","01-701-1302",2,"E24","HYPERHIDROSIS","PERSPIRATION EXCESSIVE",NA,"HYPERHIDROSIS",NA,"HLT_0587",NA,"HLGT_0005",NA,"SKIN AND SUBCUTANEOUS TISSUE DISORDERS",NA,"SKIN AND SUBCUTANEOUS TISSUE DISORDERS",NA,"MILD","N",NA,"POSSIBLE","NOT RECOVERED/NOT RESOLVED","N","N","N","N","N","N","N","2013-09-15","2013-08-30",NA,2,NA,2013-08-29,2013-11-05,NA,2013-11-05,2013-08-30,NA,"H",NA,NA,NA,2013-08-30,NA,2,NA,NA,NA,2013-08-30,54,"mg","MILD","POSSIBLE","Y",1,NA,"1302","2013-08-29","2013-11-05","2013-08-29","2013-11-05",NA,"2014-02-13",NA,NA,"701",61,"YEARS","M","WHITE","NOT HISPANIC OR LATINO","Xan_Hi","Xanomeline High Dose","Xan_Hi","Xanomeline High Dose","USA","2013-08-20",-9,"Xanomeline High Dose","Xanomeline High Dose",2013-08-29,"H",2013-11-05 23:59:59,"H",69,NA,"DISCONTINUED",2014-02-13,2013-08-29,NA,NA,NA,NA,NA,NA,2013-11-05,"Y","White","18-64","NA",NA,NA,NA,NA
"CDISCPILOT01","AE","01-701-1302",3,"E26","STOMACH DISCOMFORT","STOMACH UPSET",NA,"STOMACH DISCOMFORT",NA,"HLT_0065",NA,"HLGT_0183",NA,"GASTROINTESTINAL DISORDERS",NA,"GASTROINTESTINAL DISORDERS",NA,"MILD","N",NA,"POSSIBLE","NOT RECOVERED/NOT RESOLVED","N","N","N","N","N","N","N","2013-09-15","2013-08-30",NA,2,NA,2013-08-29,2013-11-05,NA,2013-11-05,2013-08-30,NA,"H",NA,NA,NA,2013-08-30,NA,2,NA,NA,NA,2013-08-30,54,"mg","MILD","POSSIBLE","Y",1,NA,"1302","2013-08-29","2013-11-05","2013-08-29","2013-11-05",NA,"2014-02-13",NA,NA,"701",61,"YEARS","M","WHITE","NOT HISPANIC OR LATINO","Xan_Hi","Xanomeline High Dose","Xan_Hi","Xanomeline High Dose","USA","2013-08-20",-9,"Xanomeline High Dose","Xanomeline High Dose",2013-08-29,"H",2013-11-05 23:59:59,"H",69,NA,"DISCONTINUED",2014-02-13,2013-08-29,NA,NA,NA,NA,NA,NA,2013-11-05,"Y","White","18-64","NA",NA,NA,NA,NA
"CDISCPILOT01","AE","01-701-1302",4,"E22","PAIN","STINGING",NA,"PAIN",NA,"HLT_0314",NA,"HLGT_0478",NA,"GENERAL DISORDERS AND ADMINISTRATION SITE CONDITIONS",NA,"GENERAL DISORDERS AND ADMINISTRATION SITE CONDITIONS",NA,"MILD","N",NA,"POSSIBLE","NOT RECOVERED/NOT RESOLVED","N","N","N","N","N","N","N","2013-09-15","2013-08-31",NA,3,NA,2013-08-29,2013-11-05,NA,2013-11-05,2013-08-31,NA,"H",NA,NA,NA,2013-08-31,NA,3,NA,NA,NA,2013-08-31,54,"mg","MILD","POSSIBLE","Y",1,NA,"1302","2013-08-29","2013-11-05","2013-08-29","2013-11-05",NA,"2014-02-13",NA,NA,"701",61,"YEARS","M","WHITE","NOT HISPANIC OR LATINO","Xan_Hi","Xanomeline High Dose","Xan_Hi","Xanomeline High Dose","USA","2013-08-20",-9,"Xanomeline High Dose","Xanomeline High Dose",2013-08-29,"H",2013-11-05 23:59:59,"H",69,NA,"DISCONTINUED",2014-02-13,2013-08-29,NA,NA,NA,NA,NA,NA,2013-11-05,"Y","White","18-64","NA",NA,NA,NA,NA
"CDISCPILOT01","AE","01-701-1302",5,"E13","NASAL CONGESTION","NASAL CONGESTION",NA,"NASAL CONGESTION",NA,"HLT_0118",NA,"HLGT_0549",NA,"RESPIRATORY, THORACIC AND MEDIASTINAL DISORDERS",NA,"RESPIRATORY, THORACIC AND MEDIASTINAL DISORDERS",NA,"MILD","N",NA,"NONE","NOT RECOVERED/NOT RESOLVED","N","N","N","N","N","N","N","2013-09-15","2013-09-01",NA,4,NA,2013-08-29,2013-11-05,NA,2013-11-05,2013-09-01,NA,"H",NA,NA,NA,2013-09-01,NA,4,NA,NA,NA,2013-09-01,54,"mg","MILD","NONE","Y",1,NA,"1302","2013-08-29","2013-11-05","2013-08-29","2013-11-05",NA,"2014-02-13",NA,NA,"701",61,"YEARS","M","WHITE","NOT HISPANIC OR LATINO","Xan_Hi","Xanomeline High Dose","Xan_Hi","Xanomeline High Dose","USA","2013-08-20",-9,"Xanomeline High Dose","Xanomeline High Dose",2013-08-29,"H",2013-11-05 23:59:59,"H",69,NA,"DISCONTINUED",2014-02-13,2013-08-29,NA,NA,NA,NA,NA,NA,2013-11-05,"Y","White","18-64","NA",NA,NA,NA,NA
"CDISCPILOT01","AE","01-701-1302",6,"E14","PHARYNGOLARYNGEAL PAIN","SORE THROAT",NA,"PHARYNGOLARYNGEAL PAIN",NA,"HLT_0130",NA,"HLGT_0402",NA,"RESPIRATORY, THORACIC AND MEDIASTINAL DISORDERS",NA,"RESPIRATORY, THORACIC AND MEDIASTINAL DISORDERS",NA,"MILD","N",NA,"NONE","NOT RECOVERED/NOT RESOLVED","N","N","N","N","N","N","N","2013-09-15","2013-09-02",NA,5,NA,2013-08-29,2013-11-05,NA,2013-11-05,2013-09-02,NA,"H",NA,NA,NA,2013-09-02,NA,5,NA,NA,NA,2013-09-02,54,"mg","MILD","NONE","Y",1,NA,"1302","2013-08-29","2013-11-05","2013-08-29","2013-11-05",NA,"2014-02-13",NA,NA,"701",61,"YEARS","M","WHITE","NOT HISPANIC OR LATINO","Xan_Hi","Xanomeline High Dose","Xan_Hi","Xanomeline High Dose","USA","2013-08-20",-9,"Xanomeline High Dose","Xanomeline High Dose",2013-08-29,"H",2013-11-05 23:59:59,"H",69,NA,"DISCONTINUED",2014-02-13,2013-08-29,NA,NA,NA,NA,NA,NA,2013-11-05,"Y","White","18-64","NA",NA,NA,NA,NA
"CDISCPILOT01","AE","01-701-1302",7,"E15","PRODUCTIVE COUGH","PRODUCTIVE COUGH",NA,"PRODUCTIVE COUGH",NA,"HLT_0545",NA,"HLGT_0681",NA,"RESPIRATORY, THORACIC AND MEDIASTINAL DISORDERS",NA,"RESPIRATORY, THORACIC AND MEDIASTINAL DISORDERS",NA,"MILD","N",NA,"NONE","NOT RECOVERED/NOT RESOLVED","N","N","N","N","N","N","N","2013-09-15","2013-09-02",NA,5,NA,2013-08-29,2013-11-05,NA,2013-11-05,2013-09-02,NA,"H",NA,NA,NA,2013-09-02,NA,5,NA,NA,NA,2013-09-02,54,"mg","MILD","NONE","Y",1,NA,"1302","2013-08-29","2013-11-05","2013-08-29","2013-11-05",NA,"2014-02-13",NA,NA,"701",61,"YEARS","M","WHITE","NOT HISPANIC OR LATINO","Xan_Hi","Xanomeline High Dose","Xan_Hi","Xanomeline High Dose","USA","2013-08-20",-9,"Xanomeline High Dose","Xanomeline High Dose",2013-08-29,"H",2013-11-05 23:59:59,"H",69,NA,"DISCONTINUED",2014-02-13,2013-08-29,NA,NA,NA,NA,NA,NA,2013-11-05,"Y","White","18-64","NA",NA,NA,NA,NA
"CDISCPILOT01","AE","01-701-1302",8,"E16","MALAISE","MALAISE",NA,"MALAISE",NA,"HLT_0456",NA,"HLGT_0178",NA,"GENERAL DISORDERS AND ADMINISTRATION SITE CONDITIONS",NA,"GENERAL DISORDERS AND ADMINISTRATION SITE CONDITIONS",NA,"MILD","N",NA,"REMOTE","NOT RECOVERED/NOT RESOLVED","N","N","N","N","N","N","N","2013-09-15","2013-09-02",NA,5,NA,2013-08-29,2013-11-05,NA,2013-11-05,2013-09-02,NA,"H",NA,NA,NA,2013-09-02,NA,5,NA,NA,NA,2013-09-02,54,"mg","MILD","REMOTE","Y",1,NA,"1302","2013-08-29","2013-11-05","2013-08-29","2013-11-05",NA,"2014-02-13",NA,NA,"701",61,"YEARS","M","WHITE","NOT HISPANIC OR LATINO","Xan_Hi","Xanomeline High Dose","Xan_Hi","Xanomeline High Dose","USA","2013-08-20",-9,"Xanomeline High Dose","Xanomeline High Dose",2013-08-29,"H",2013-11-05 23:59:59,"H",69,NA,"DISCONTINUED",2014-02-13,2013-08-29,NA,NA,NA,NA,NA,NA,2013-11-05,"Y","White","18-64","NA",NA,NA,NA,NA
"CDISCPILOT01","AE","01-701-1302",10,"E18","MYALGIA","MYALGIA",NA,"MYALGIA",NA,"HLT_0700",NA,"HLGT_0121",NA,"MUSCULOSKELETAL AND CONNECTIVE TISSUE DISORDERS",NA,"MUSCULOSKELETAL AND CONNECTIVE TISSUE DISORDERS",NA,"MILD","N",NA,"POSSIBLE","NOT RECOVERED/NOT RESOLVED","N","N","N","N","N","N","N","2013-09-15","2013-09-02",NA,5,NA,2013-08-29,2013-11-05,NA,2013-11-05,2013-09-02,NA,"H",NA,NA,NA,2013-09-02,NA,5,NA,NA,NA,2013-09-02,54,"mg","MILD","POSSIBLE","Y",1,NA,"1302","2013-08-29","2013-11-05","2013-08-29","2013-11-05",NA,"2014-02-13",NA,NA,"701",61,"YEARS","M","WHITE","NOT HISPANIC OR LATINO","Xan_Hi","Xanomeline High Dose","Xan_Hi","Xanomeline High Dose","USA","2013-08-20",-9,"Xanomeline High Dose","Xanomeline High Dose",2013-08-29,"H",2013-11-05 23:59:59,"H",69,NA,"DISCONTINUED",2014-02-13,2013-08-29,NA,NA,NA,NA,NA,NA,2013-11-05,"Y","White","18-64","NA",NA,NA,NA,NA
"CDISCPILOT01","AE","01-701-1302",11,"E20","DIZZINESS","LIGHTHEADEDNESS",NA,"DIZZINESS",NA,"HLT_0619",NA,"HLGT_0751",NA,"NERVOUS SYSTEM DISORDERS",NA,"NERVOUS SYSTEM DISORDERS",NA,"MILD","N",NA,"POSSIBLE","NOT RECOVERED/NOT RESOLVED","N","N","N","N","N","N","N","2013-09-15","2013-09-04",NA,7,NA,2013-08-29,2013-11-05,NA,2013-11-05,2013-09-04,NA,"H",NA,NA,NA,2013-09-04,NA,7,NA,NA,NA,2013-09-04,54,"mg","MILD","POSSIBLE","Y",1,NA,"1302","2013-08-29","2013-11-05","2013-08-29","2013-11-05",NA,"2014-02-13",NA,NA,"701",61,"YEARS","M","WHITE","NOT HISPANIC OR LATINO","Xan_Hi","Xanomeline High Dose","Xan_Hi","Xanomeline High Dose","USA","2013-08-20",-9,"Xanomeline High Dose","Xanomeline High Dose",2013-08-29,"H",2013-11-05 23:59:59,"H",69,NA,"DISCONTINUED",2014-02-13,2013-08-29,NA,NA,NA,NA,NA,NA,2013-11-05,"Y","White","18-64","NA",NA,NA,NA,NA
"CDISCPILOT01","AE","01-701-1302",12,"E19","CONTUSION","BRUISE",NA,"CONTUSION",NA,"HLT_0713",NA,"HLGT_0381",NA,"INJURY, POISONING AND PROCEDURAL COMPLICATIONS",NA,"INJURY, POISONING AND PROCEDURAL COMPLICATIONS",NA,"MILD","N",NA,"REMOTE","NOT RECOVERED/NOT RESOLVED","N","N","N","N","N","N","N","2013-09-15","2013-09-05","2013-10-08",8,41,2013-08-29,2013-11-05,NA,2013-11-05,2013-09-05,NA,"H",2013-10-08 23:59:59,NA,"H",2013-09-05,2013-10-08,8,41,34,"days",2013-09-05,54,"mg","MILD","REMOTE","Y",1,NA,"1302","2013-08-29","2013-11-05","2013-08-29","2013-11-05",NA,"2014-02-13",NA,NA,"701",61,"YEARS","M","WHITE","NOT HISPANIC OR LATINO","Xan_Hi","Xanomeline High Dose","Xan_Hi","Xanomeline High Dose","USA","2013-08-20",-9,"Xanomeline High Dose","Xanomeline High Dose",2013-08-29,"H",2013-11-05 23:59:59,"H",69,NA,"DISCONTINUED",2014-02-13,2013-08-29,NA,NA,NA,NA,NA,NA,2013-11-05,"Y","White","18-64","NA",NA,NA,NA,NA
"CDISCPILOT01","AE","01-701-1302",15,"E19","CONTUSION","BRUISE",NA,"CONTUSION",NA,"HLT_0713",NA,"HLGT_0381",NA,"INJURY, POISONING AND PROCEDURAL COMPLICATIONS",NA,"INJURY, POISONING AND PROCEDURAL COMPLICATIONS",NA,"MILD","N",NA,"REMOTE","RECOVERED/RESOLVED","N","N","N","N","N","N","N","2013-10-22","2013-09-05","2013-10-08",8,41,2013-08-29,2013-11-05,NA,2013-11-05,2013-09-05,NA,"H",2013-10-08 23:59:59,NA,"H",2013-09-05,2013-10-08,8,41,34,"days",2013-09-05,54,"mg","MILD","REMOTE","Y",1,NA,"1302","2013-08-29","2013-11-05","2013-08-29","2013-11-05",NA,"2014-02-13",NA,NA,"701",61,"YEARS","M","WHITE","NOT HISPANIC OR LATINO","Xan_Hi","Xanomeline High Dose","Xan_Hi","Xanomeline High Dose","USA","2013-08-20",-9,"Xanomeline High Dose","Xanomeline High Dose",2013-08-29,"H",2013-11-05 23:59:59,"H",69,NA,"DISCONTINUED",2014-02-13,2013-08-29,NA,NA,NA,NA,NA,NA,2013-11-05,"Y","White","18-64","NA",NA,NA,NA,NA
"CDISCPILOT01","AE","01-701-1302",13,"E23","HEADACHE","HEADACHE",NA,"HEADACHE",NA,"HLT_0064",NA,"HLGT_0344",NA,"NERVOUS SYSTEM DISORDERS",NA,"NERVOUS SYSTEM DISORDERS",NA,"MILD","N",NA,"NONE","NOT RECOVERED/NOT RESOLVED","N","N","N","N","N","N","N","2013-09-15","2013-09-15",NA,18,NA,2013-08-29,2013-11-05,NA,2013-11-05,2013-09-15,NA,"H",NA,NA,NA,2013-09-15,NA,18,NA,NA,NA,2013-09-15,54,"mg","MILD","NONE","Y",1,NA,"1302","2013-08-29","2013-11-05","2013-08-29","2013-11-05",NA,"2014-02-13",NA,NA,"701",61,"YEARS","M","WHITE","NOT HISPANIC OR LATINO","Xan_Hi","Xanomeline High Dose","Xan_Hi","Xanomeline High Dose","USA","2013-08-20",-9,"Xanomeline High Dose","Xanomeline High Dose",2013-08-29,"H",2013-11-05 23:59:59,"H",69,NA,"DISCONTINUED",2014-02-13,2013-08-29,NA,NA,NA,NA,NA,NA,2013-11-05,"Y","White","18-64","NA",NA,NA,NA,NA
"CDISCPILOT01","AE","01-701-1302",14,"E25","EPISTAXIS","NOSE BLEED",NA,"EPISTAXIS",NA,"HLT_0386",NA,"HLGT_0577",NA,"RESPIRATORY, THORACIC AND MEDIASTINAL DISORDERS",NA,"RESPIRATORY, THORACIC AND MEDIASTINAL DISORDERS",NA,"MILD","N",NA,"REMOTE","NOT RECOVERED/NOT RESOLVED","N","N","N","N","N","N","N","2013-10-08","2013-09-30",NA,33,NA,2013-08-29,2013-11-05,NA,2013-11-05,2013-09-30,NA,"H",NA,NA,NA,2013-09-30,NA,33,NA,NA,NA,2013-09-15,NA,NA,"MILD","REMOTE","Y",1,NA,"1302","2013-08-29","2013-11-05","2013-08-29","2013-11-05",NA,"2014-02-13",NA,NA,"701",61,"YEARS","M","WHITE","NOT HISPANIC OR LATINO","Xan_Hi","Xanomeline High Dose","Xan_Hi","Xanomeline High Dose","USA","2013-08-20",-9,"Xanomeline High Dose","Xanomeline High Dose",2013-08-29,"H",2013-11-05 23:59:59,"H",69,NA,"DISCONTINUED",2014-02-13,2013-08-29,NA,NA,NA,NA,NA,NA,2013-11-05,"Y","White","18-64","NA",NA,NA,NA,NA
"CDISCPILOT01","AE","01-701-1302",16,"E27","APPLICATION SITE ERYTHEMA","APPLICATION SITE REDNESS",NA,"APPLICATION SITE ERYTHEMA",NA,"HLT_0617",NA,"HLGT_0152",NA,"GENERAL DISORDERS AND ADMINISTRATION SITE CONDITIONS",NA,"GENERAL DISORDERS AND ADMINISTRATION SITE CONDITIONS",NA,"MILD","N",NA,"PROBABLE","NOT RECOVERED/NOT RESOLVED","N","N","N","N","N","N","N","2013-10-22","2013-10-15",NA,48,NA,2013-08-29,2013-11-05,NA,2013-11-05,2013-10-15,NA,"H",NA,NA,NA,2013-10-15,NA,48,NA,NA,NA,2013-09-15,NA,NA,"MILD","PROBABLE","Y",1,NA,"1302","2013-08-29","2013-11-05","2013-08-29","2013-11-05",NA,"2014-02-13",NA,NA,"701",61,"YEARS","M","WHITE","NOT HISPANIC OR LATINO","Xan_Hi","Xanomeline High Dose","Xan_Hi","Xanomeline High Dose","USA","2013-08-20",-9,"Xanomeline High Dose","Xanomeline High Dose",2013-08-29,"H",2013-11-05 23:59:59,"H",69,NA,"DISCONTINUED",2014-02-13,2013-08-29,NA,NA,NA,NA,NA,NA,2013-11-05,"Y","White","18-64","NA",NA,NA,NA,NA
"CDISCPILOT01","AE","01-701-1302",17,"E28","APPLICATION SITE PRURITUS","APPLICATION SITE ITCHING",NA,"APPLICATION SITE PRURITUS",NA,"HLT_0317",NA,"HLGT_0338",NA,"GENERAL DISORDERS AND ADMINISTRATION SITE CONDITIONS",NA,"GENERAL DISORDERS AND ADMINISTRATION SITE CONDITIONS",NA,"MILD","N",NA,"PROBABLE","NOT RECOVERED/NOT RESOLVED","N","N","N","N","N","N","N","2013-10-22","2013-10-15",NA,48,NA,2013-08-29,2013-11-05,NA,2013-11-05,2013-10-15,NA,"H",NA,NA,NA,2013-10-15,NA,48,NA,NA,NA,2013-09-15,NA,NA,"MILD","PROBABLE","Y",1,NA,"1302","2013-08-29","2013-11-05","2013-08-29","2013-11-05",NA,"2014-02-13",NA,NA,"701",61,"YEARS","M","WHITE","NOT HISPANIC OR LATINO","Xan_Hi","Xanomeline High Dose","Xan_Hi","Xanomeline High Dose","USA","2013-08-20",-9,"Xanomeline High Dose","Xanomeline High Dose",2013-08-29,"H",2013-11-05 23:59:59,"H",69,NA,"DISCONTINUED",2014-02-13,2013-08-29,NA,NA,NA,NA,NA,NA,2013-11-05,"Y","White","18-64","NA",NA,NA,NA,NA
"CDISCPILOT01","AE","01-701-1302",19,"E29","RESPIRATORY TRACT CONGESTION","RESPIRATORY TRACT CONGESTION",NA,"RESPIRATORY TRACT CONGESTION",NA,"HLT_0330",NA,"HLGT_0424",NA,"RESPIRATORY, THORACIC AND MEDIASTINAL DISORDERS",NA,"RESPIRATORY, THORACIC AND MEDIASTINAL DISORDERS",NA,"MILD","N",NA,"NONE","NOT RECOVERED/NOT RESOLVED","N","N","N","N","N","N","N","2013-11-05","2013-10-23",NA,56,NA,2013-08-29,2013-11-05,NA,2013-11-05,2013-10-23,NA,"H",NA,NA,NA,2013-10-23,NA,56,NA,NA,NA,2013-09-15,NA,NA,"MILD","NONE","Y",1,NA,"1302","2013-08-29","2013-11-05","2013-08-29","2013-11-05",NA,"2014-02-13",NA,NA,"701",61,"YEARS","M","WHITE","NOT HISPANIC OR LATINO","Xan_Hi","Xanomeline High Dose","Xan_Hi","Xanomeline High Dose","USA","2013-08-20",-9,"Xanomeline High Dose","Xanomeline High Dose",2013-08-29,"H",2013-11-05 23:59:59,"H",69,NA,"DISCONTINUED",2014-02-13,2013-08-29,NA,NA,NA,NA,NA,NA,2013-11-05,"Y","White","18-64","NA",NA,NA,NA,NA
"CDISCPILOT01","AE","01-701-1302",20,"E30","RHINITIS","CORYZA",NA,"RHINITIS",NA,"HLT_0239",NA,"HLGT_0322",NA,"INFECTIONS AND INFESTATIONS",NA,"INFECTIONS AND INFESTATIONS",NA,"MILD","N",NA,"NONE","NOT RECOVERED/NOT RESOLVED","N","N","N","N","N","N","N","2013-11-05","2013-10-23",NA,56,NA,2013-08-29,2013-11-05,NA,2013-11-05,2013-10-23,NA,"H",NA,NA,NA,2013-10-23,NA,56,NA,NA,NA,2013-09-15,NA,NA,"MILD","NONE","Y",1,NA,"1302","2013-08-29","2013-11-05","2013-08-29","2013-11-05",NA,"2014-02-13",NA,NA,"701",61,"YEARS","M","WHITE","NOT HISPANIC OR LATINO","Xan_Hi","Xanomeline High Dose","Xan_Hi","Xanomeline High Dose","USA","2013-08-20",-9,"Xanomeline High Dose","Xanomeline High Dose",2013-08-29,"H",2013-11-05 23:59:59,"H",69,NA,"DISCONTINUED",2014-02-13,2013-08-29,NA,NA,NA,NA,NA,NA,2013-11-05,"Y","White","18-64","NA",NA,NA,NA,NA
"CDISCPILOT01","AE","01-701-1302",21,"E31","FEELING ABNORMAL","FOGGY FEELING IN HEAD",NA,"FEELING ABNORMAL",NA,"HLT_0524",NA,"HLGT_0749",NA,"GENERAL DISORDERS AND ADMINISTRATION SITE CONDITIONS",NA,"GENERAL DISORDERS AND ADMINISTRATION SITE CONDITIONS",NA,"MILD","N",NA,"POSSIBLE","NOT RECOVERED/NOT RESOLVED","N","N","N","N","N","N","N","2013-11-05","2013-10-24",NA,57,NA,2013-08-29,2013-11-05,NA,2013-11-05,2013-10-24,NA,"H",NA,NA,NA,2013-10-24,NA,57,NA,NA,NA,2013-09-15,NA,NA,"MILD","POSSIBLE","Y",1,NA,"1302","2013-08-29","2013-11-05","2013-08-29","2013-11-05",NA,"2014-02-13",NA,NA,"701",61,"YEARS","M","WHITE","NOT HISPANIC OR LATINO","Xan_Hi","Xanomeline High Dose","Xan_Hi","Xanomeline High Dose","USA","2013-08-20",-9,"Xanomeline High Dose","Xanomeline High Dose",2013-08-29,"H",2013-11-05 23:59:59,"H",69,NA,"DISCONTINUED",2014-02-13,2013-08-29,NA,NA,NA,NA,NA,NA,2013-11-05,"Y","White","18-64","NA",NA,NA,NA,NA
"CDISCPILOT01","AE","01-701-1302",22,"E32","LISTLESS","LISTLESSNESS",NA,"LISTLESS",NA,"HLT_0657",NA,"HLGT_0124",NA,"PSYCHIATRIC DISORDERS",NA,"PSYCHIATRIC DISORDERS",NA,"MILD","N",NA,"POSSIBLE","NOT RECOVERED/NOT RESOLVED","N","N","N","N","N","N","N","2013-11-05","2013-10-24",NA,57,NA,2013-08-29,2013-11-05,NA,2013-11-05,2013-10-24,NA,"H",NA,NA,NA,2013-10-24,NA,57,NA,NA,NA,2013-09-15,NA,NA,"MILD","POSSIBLE","Y",1,NA,"1302","2013-08-29","2013-11-05","2013-08-29","2013-11-05",NA,"2014-02-13",NA,NA,"701",61,"YEARS","M","WHITE","NOT HISPANIC OR LATINO","Xan_Hi","Xanomeline High Dose","Xan_Hi","Xanomeline High Dose","USA","2013-08-20",-9,"Xanomeline High Dose","Xanomeline High Dose",2013-08-29,"H",2013-11-05 23:59:59,"H",69,NA,"DISCONTINUED",2014-02-13,2013-08-29,NA,NA,NA,NA,NA,NA,2013-11-05,"Y","White","18-64","NA",NA,NA,NA,NA
"CDISCPILOT01","AE","01-701-1302",23,"E33","LIBIDO DECREASED","LIBIDO DECREASED",NA,"LIBIDO DECREASED",NA,"HLT_0338",NA,"HLGT_0496",NA,"PSYCHIATRIC DISORDERS",NA,"PSYCHIATRIC DISORDERS",NA,"MILD","N",NA,"POSSIBLE","NOT RECOVERED/NOT RESOLVED","N","N","N","N","N","N","N","2013-11-05","2013-10-24",NA,57,NA,2013-08-29,2013-11-05,NA,2013-11-05,2013-10-24,NA,"H",NA,NA,NA,2013-10-24,NA,57,NA,NA,NA,2013-09-15,NA,NA,"MILD","POSSIBLE","Y",1,NA,"1302","2013-08-29","2013-11-05","2013-08-29","2013-11-05",NA,"2014-02-13",NA,NA,"701",61,"YEARS","M","WHITE","NOT HISPANIC OR LATINO","Xan_Hi","Xanomeline High Dose","Xan_Hi","Xanomeline High Dose","USA","2013-08-20",-9,"Xanomeline High Dose","Xanomeline High Dose",2013-08-29,"H",2013-11-05 23:59:59,"H",69,NA,"DISCONTINUED",2014-02-13,2013-08-29,NA,NA,NA,NA,NA,NA,2013-11-05,"Y","White","18-64","NA",NA,NA,NA,NA
"CDISCPILOT01","AE","01-701-1317",7,"E16","DEPRESSED MOOD","DEPRESSED MOOD",NA,"DEPRESSED MOOD",NA,"HLT_0784",NA,"HLGT_0122",NA,"PSYCHIATRIC DISORDERS",NA,"PSYCHIATRIC DISORDERS",NA,"MODERATE","N",NA,"POSSIBLE","NOT RECOVERED/NOT RESOLVED","N","N","N","N","N","N","N","2014-10-09","2014-07-04",NA,44,NA,2014-05-22,2014-11-20,NA,2014-11-20,2014-07-04,NA,"H",NA,NA,NA,2014-07-04,NA,44,NA,NA,NA,2014-07-04,54,"mg","MODERATE","POSSIBLE","Y",2,"Y","1317","2014-05-22","2014-11-20","2014-05-22","2014-11-20",NA,"2014-11-20T11:54",NA,NA,"701",68,"YEARS","M","WHITE","NOT HISPANIC OR LATINO","Xan_Lo","Xanomeline Low Dose","Xan_Lo","Xanomeline Low Dose","USA","2014-05-10",-12,"Xanomeline Low Dose","Xanomeline Low Dose",2014-05-22,"H",2014-11-20 23:59:59,"H",183,NA,"COMPLETED",NA,2014-05-22,NA,NA,NA,NA,NA,NA,2014-11-20,"Y","White",">64","NA",NA,NA,NA,NA
"CDISCPILOT01","AE","01-701-1317",3,"E13","APPLICATION SITE ERYTHEMA","APPLICATION SITE REDNESS",NA,"APPLICATION SITE ERYTHEMA",NA,"HLT_0617",NA,"HLGT_0152",NA,"GENERAL DISORDERS AND ADMINISTRATION SITE CONDITIONS",NA,"GENERAL DISORDERS AND ADMINISTRATION SITE CONDITIONS",NA,"MILD","N",NA,"POSSIBLE","NOT RECOVERED/NOT RESOLVED","N","N","N","N","N","N","N","2014-07-03","2014-06-23",NA,33,NA,2014-05-22,2014-11-20,NA,2014-11-20,2014-06-23,NA,"H",NA,NA,NA,2014-06-23,NA,33,NA,NA,NA,2014-06-23,54,"mg","MILD","POSSIBLE","Y",1,NA,"1317","2014-05-22","2014-11-20","2014-05-22","2014-11-20",NA,"2014-11-20T11:54",NA,NA,"701",68,"YEARS","M","WHITE","NOT HISPANIC OR LATINO","Xan_Lo","Xanomeline Low Dose","Xan_Lo","Xanomeline Low Dose","USA","2014-05-10",-12,"Xanomeline Low Dose","Xanomeline Low Dose",2014-05-22,"H",2014-11-20 23:59:59,"H",183,NA,"COMPLETED",NA,2014-05-22,NA,NA,NA,NA,NA,NA,2014-11-20,"Y","White",">64","NA",NA,NA,NA,NA
"CDISCPILOT01","AE","01-701-1317",4,"E14","APPLICATION SITE PRURITUS","APPLICATION SITE ITCHING",NA,"APPLICATION SITE PRURITUS",NA,"HLT_0317",NA,"HLGT_0338",NA,"GENERAL DISORDERS AND ADMINISTRATION SITE CONDITIONS",NA,"GENERAL DISORDERS AND ADMINISTRATION SITE CONDITIONS",NA,"MILD","N",NA,"POSSIBLE","NOT RECOVERED/NOT RESOLVED","N","N","N","N","N","N","N","2014-07-03","2014-06-23",NA,33,NA,2014-05-22,2014-11-20,NA,2014-11-20,2014-06-23,NA,"H",NA,NA,NA,2014-06-23,NA,33,NA,NA,NA,2014-06-23,54,"mg","MILD","POSSIBLE","Y",1,NA,"1317","2014-05-22","2014-11-20","2014-05-22","2014-11-20",NA,"2014-11-20T11:54",NA,NA,"701",68,"YEARS","M","WHITE","NOT HISPANIC OR LATINO","Xan_Lo","Xanomeline Low Dose","Xan_Lo","Xanomeline Low Dose","USA","2014-05-10",-12,"Xanomeline Low Dose","Xanomeline Low Dose",2014-05-22,"H",2014-11-20 23:59:59,"H",183,NA,"COMPLETED",NA,2014-05-22,NA,NA,NA,NA,NA,NA,2014-11-20,"Y","White",">64","NA",NA,NA,NA,NA
"CDISCPILOT01","AE","01-701-1317",5,"E15","APPLICATION SITE URTICARIA","APPLICATION SITE URTICARIA",NA,"APPLICATION SITE URTICARIA",NA,"HLT_0196",NA,"HLGT_0233",NA,"GENERAL DISORDERS AND ADMINISTRATION SITE CONDITIONS",NA,"GENERAL DISORDERS AND ADMINISTRATION SITE CONDITIONS",NA,"MILD","N",NA,"POSSIBLE","NOT RECOVERED/NOT RESOLVED","N","N","N","N","N","N","N","2014-07-03","2014-06-23",NA,33,NA,2014-05-22,2014-11-20,NA,2014-11-20,2014-06-23,NA,"H",NA,NA,NA,2014-06-23,NA,33,NA,NA,NA,2014-06-23,54,"mg","MILD","POSSIBLE","Y",1,NA,"1317","2014-05-22","2014-11-20","2014-05-22","2014-11-20",NA,"2014-11-20T11:54",NA,NA,"701",68,"YEARS","M","WHITE","NOT HISPANIC OR LATINO","Xan_Lo","Xanomeline Low Dose","Xan_Lo","Xanomeline Low Dose","USA","2014-05-10",-12,"Xanomeline Low Dose","Xanomeline Low Dose",2014-05-22,"H",2014-11-20 23:59:59,"H",183,NA,"COMPLETED",NA,2014-05-22,NA,NA,NA,NA,NA,NA,2014-11-20,"Y","White",">64","NA",NA,NA,NA,NA
"CDISCPILOT01","AE","01-701-1317",6,"E16","DEPRESSED MOOD","DEPRESSED MOOD",NA,"DEPRESSED MOOD",NA,"HLT_0784",NA,"HLGT_0122",NA,"PSYCHIATRIC DISORDERS",NA,"PSYCHIATRIC DISORDERS",NA,"MILD","N",NA,"POSSIBLE","NOT RECOVERED/NOT RESOLVED","N","N","N","N","N","N","N","2014-07-22","2014-07-04",NA,44,NA,2014-05-22,2014-11-20,NA,2014-11-20,2014-07-04,NA,"H",NA,NA,NA,2014-07-04,NA,44,NA,NA,NA,2014-07-04,54,"mg","MILD","POSSIBLE","Y",1,NA,"1317","2014-05-22","2014-11-20","2014-05-22","2014-11-20",NA,"2014-11-20T11:54",NA,NA,"701",68,"YEARS","M","WHITE","NOT HISPANIC OR LATINO","Xan_Lo","Xanomeline Low Dose","Xan_Lo","Xanomeline Low Dose","USA","2014-05-10",-12,"Xanomeline Low Dose","Xanomeline Low Dose",2014-05-22,"H",2014-11-20 23:59:59,"H",183,NA,"COMPLETED",NA,2014-05-22,NA,NA,NA,NA,NA,NA,2014-11-20,"Y","White",">64","NA",NA,NA,NA,NA
"CDISCPILOT01","AE","01-701-1317",8,"E17","FATIGUE","TIREDNESS",NA,"FATIGUE",NA,"HLT_0043",NA,"HLGT_0181",NA,"GENERAL DISORDERS AND ADMINISTRATION SITE CONDITIONS",NA,"GENERAL DISORDERS AND ADMINISTRATION SITE CONDITIONS",NA,"MILD","N",NA,"REMOTE","NOT RECOVERED/NOT RESOLVED","N","N","N","N","N","N","N","2014-10-09","2014-09-12",NA,114,NA,2014-05-22,2014-11-20,NA,2014-11-20,2014-09-12,NA,"H",NA,NA,NA,2014-09-12,NA,114,NA,NA,NA,2014-09-12,54,"mg","MILD","REMOTE","Y",1,NA,"1317","2014-05-22","2014-11-20","2014-05-22","2014-11-20",NA,"2014-11-20T11:54",NA,NA,"701",68,"YEARS","M","WHITE","NOT HISPANIC OR LATINO","Xan_Lo","Xanomeline Low Dose","Xan_Lo","Xanomeline Low Dose","USA","2014-05-10",-12,"Xanomeline Low Dose","Xanomeline Low Dose",2014-05-22,"H",2014-11-20 23:59:59,"H",183,NA,"COMPLETED",NA,2014-05-22,NA,NA,NA,NA,NA,NA,2014-11-20,"Y","White",">64","NA",NA,NA,NA,NA
"CDISCPILOT01","AE","01-701-1317",9,"E18","DYSPHONIA","HOARSENESS",NA,"DYSPHONIA",NA,"HLT_0073",NA,"HLGT_0274",NA,"RESPIRATORY, THORACIC AND MEDIASTINAL DISORDERS",NA,"RESPIRATORY, THORACIC AND MEDIASTINAL DISORDERS",NA,"MILD","N",NA,"REMOTE","NOT RECOVERED/NOT RESOLVED","N","N","N","N","N","N","N","2014-11-06","2014-11-03",NA,166,NA,2014-05-22,2014-11-20,NA,2014-11-20,2014-11-03,NA,"H",NA,NA,NA,2014-11-03,NA,166,NA,NA,NA,2014-11-03,54,"mg","MILD","REMOTE","Y",1,NA,"1317","2014-05-22","2014-11-20","2014-05-22","2014-11-20",NA,"2014-11-20T11:54",NA,NA,"701",68,"YEARS","M","WHITE","NOT HISPANIC OR LATINO","Xan_Lo","Xanomeline Low Dose","Xan_Lo","Xanomeline Low Dose","USA","2014-05-10",-12,"Xanomeline Low Dose","Xanomeline Low Dose",2014-05-22,"H",2014-11-20 23:59:59,"H",183,NA,"COMPLETED",NA,2014-05-22,NA,NA,NA,NA,NA,NA,2014-11-20,"Y","White",">64","NA",NA,NA,NA,NA
"CDISCPILOT01","AE","01-701-1324",1,"E04","APPLICATION SITE ERYTHEMA","APPLICATION SITE ERYTHEMA",NA,"APPLICATION SITE ERYTHEMA",NA,"HLT_0617",NA,"HLGT_0152",NA,"GENERAL DISORDERS AND ADMINISTRATION SITE CONDITIONS",NA,"GENERAL DISORDERS AND ADMINISTRATION SITE CONDITIONS",NA,"MILD","N",NA,"PROBABLE","NOT RECOVERED/NOT RESOLVED","N","N","N","N","N","N","N","2012-10-30","2012-10-22",NA,21,NA,2012-10-02,2013-04-02,NA,2013-04-02,2012-10-22,NA,"H",NA,NA,NA,2012-10-22,NA,21,NA,NA,NA,2012-10-22,54,"mg","MILD","PROBABLE","Y",1,"Y","1324","2012-10-02","2013-04-02","2012-10-02","2013-04-02",NA,"2013-04-02T11:35",NA,NA,"701",79,"YEARS","M","WHITE","NOT HISPANIC OR LATINO","Xan_Lo","Xanomeline Low Dose","Xan_Lo","Xanomeline Low Dose","USA","2012-09-16",-16,"Xanomeline Low Dose","Xanomeline Low Dose",2012-10-02,"H",2013-04-02 23:59:59,"H",183,NA,"COMPLETED",NA,2012-10-02,NA,NA,NA,NA,NA,NA,2013-04-02,"Y","White",">64","NA",NA,NA,NA,NA
"CDISCPILOT01","AE","01-701-1324",2,"E06","APPLICATION SITE PRURITUS","APPLICATION SITE ITCHING",NA,"APPLICATION SITE PRURITUS",NA,"HLT_0317",NA,"HLGT_0338",NA,"GENERAL DISORDERS AND ADMINISTRATION SITE CONDITIONS",NA,"GENERAL DISORDERS AND ADMINISTRATION SITE CONDITIONS",NA,"MILD","N",NA,"PROBABLE","NOT RECOVERED/NOT RESOLVED","N","N","N","N","N","N","N","2012-12-25","2012-12-02",NA,62,NA,2012-10-02,2013-04-02,NA,2013-04-02,2012-12-02,NA,"H",NA,NA,NA,2012-12-02,NA,62,NA,NA,NA,2012-12-02,54,"mg","MILD","PROBABLE","Y",1,NA,"1324","2012-10-02","2013-04-02","2012-10-02","2013-04-02",NA,"2013-04-02T11:35",NA,NA,"701",79,"YEARS","M","WHITE","NOT HISPANIC OR LATINO","Xan_Lo","Xanomeline Low Dose","Xan_Lo","Xanomeline Low Dose","USA","2012-09-16",-16,"Xanomeline Low Dose","Xanomeline Low Dose",2012-10-02,"H",2013-04-02 23:59:59,"H",183,NA,"COMPLETED",NA,2012-10-02,NA,NA,NA,NA,NA,NA,2013-04-02,"Y","White",">64","NA",NA,NA,NA,NA
"CDISCPILOT01","AE","01-701-1324",3,"E05","APPLICATION SITE VESICLES","APPLICATION SITE BLISTER",NA,"APPLICATION SITE VESICLES",NA,"HLT_0180",NA,"HLGT_0576",NA,"GENERAL DISORDERS AND ADMINISTRATION SITE CONDITIONS",NA,"GENERAL DISORDERS AND ADMINISTRATION SITE CONDITIONS",NA,"MILD","N",NA,"PROBABLE","NOT RECOVERED/NOT RESOLVED","N","N","N","N","N","N","N","2012-12-25","2012-12-25","2013-01-16",85,107,2012-10-02,2013-04-02,NA,2013-04-02,2012-12-25,NA,"H",2013-01-16 23:59:59,NA,"H",2012-12-25,2013-01-16,85,107,23,"days",2012-12-25,54,"mg","MILD","PROBABLE","Y",1,NA,"1324","2012-10-02","2013-04-02","2012-10-02","2013-04-02",NA,"2013-04-02T11:35",NA,NA,"701",79,"YEARS","M","WHITE","NOT HISPANIC OR LATINO","Xan_Lo","Xanomeline Low Dose","Xan_Lo","Xanomeline Low Dose","USA","2012-09-16",-16,"Xanomeline Low Dose","Xanomeline Low Dose",2012-10-02,"H",2013-04-02 23:59:59,"H",183,NA,"COMPLETED",NA,2012-10-02,NA,NA,NA,NA,NA,NA,2013-04-02,"Y","White",">64","NA",NA,NA,NA,NA
"CDISCPILOT01","AE","01-701-1324",4,"E05","APPLICATION SITE VESICLES","APPLICATION SITE BLISTER",NA,"APPLICATION SITE VESICLES",NA,"HLT_0180",NA,"HLGT_0576",NA,"GENERAL DISORDERS AND ADMINISTRATION SITE CONDITIONS",NA,"GENERAL DISORDERS AND ADMINISTRATION SITE CONDITIONS",NA,"MILD","N",NA,"PROBABLE","RECOVERED/RESOLVED","N","N","N","N","N","N","N","2013-01-22","2012-12-25","2013-01-16",85,107,2012-10-02,2013-04-02,NA,2013-04-02,2012-12-25,NA,"H",2013-01-16 23:59:59,NA,"H",2012-12-25,2013-01-16,85,107,23,"days",2012-12-25,54,"mg","MILD","PROBABLE","Y",1,NA,"1324","2012-10-02","2013-04-02","2012-10-02","2013-04-02",NA,"2013-04-02T11:35",NA,NA,"701",79,"YEARS","M","WHITE","NOT HISPANIC OR LATINO","Xan_Lo","Xanomeline Low Dose","Xan_Lo","Xanomeline Low Dose","USA","2012-09-16",-16,"Xanomeline Low Dose","Xanomeline Low Dose",2012-10-02,"H",2013-04-02 23:59:59,"H",183,NA,"COMPLETED",NA,2012-10-02,NA,NA,NA,NA,NA,NA,2013-04-02,"Y","White",">64","NA",NA,NA,NA,NA
"CDISCPILOT01","AE","01-701-1341",1,"E09","APPLICATION SITE PRURITUS","APPLICATION SITE ITCHING",NA,"APPLICATION SITE PRURITUS",NA,"HLT_0317",NA,"HLGT_0338",NA,"GENERAL DISORDERS AND ADMINISTRATION SITE CONDITIONS",NA,"GENERAL DISORDERS AND ADMINISTRATION SITE CONDITIONS",NA,"MODERATE","N",NA,"PROBABLE","NOT RECOVERED/NOT RESOLVED","N","N","N","N","N","N","N","2013-02-07","2013-01-19",NA,15,NA,2013-01-05,2013-01-26,NA,2013-02-07,2013-01-19,NA,"H",NA,NA,NA,2013-01-19,NA,15,NA,NA,NA,2013-01-19,54,"mg","MODERATE","PROBABLE","Y",2,"Y","1341","2013-01-05","2013-02-07","2013-01-05","2013-01-26",NA,"2013-02-21",NA,NA,"701",51,"YEARS","M","WHITE","NOT HISPANIC OR LATINO","Xan_Lo","Xanomeline Low Dose","Xan_Lo","Xanomeline Low Dose","USA","2012-12-22",-14,"Xanomeline Low Dose","Xanomeline Low Dose",2013-01-05,"H",2013-01-26 23:59:59,"H",22,NA,"DISCONTINUED",NA,2013-01-05,NA,NA,NA,NA,NA,NA,2013-02-07,"Y","White","18-64","NA",NA,NA,NA,NA
"CDISCPILOT01","AE","01-701-1341",2,"E10","APPLICATION SITE ERYTHEMA","APPLICATION SITE REDNESS",NA,"APPLICATION SITE ERYTHEMA",NA,"HLT_0617",NA,"HLGT_0152",NA,"GENERAL DISORDERS AND ADMINISTRATION SITE CONDITIONS",NA,"GENERAL DISORDERS AND ADMINISTRATION SITE CONDITIONS",NA,"MODERATE","N",NA,"PROBABLE","NOT RECOVERED/NOT RESOLVED","N","N","N","N","N","N","N","2013-02-07","2013-01-19",NA,15,NA,2013-01-05,2013-01-26,NA,2013-02-07,2013-01-19,NA,"H",NA,NA,NA,2013-01-19,NA,15,NA,NA,NA,2013-01-19,54,"mg","MODERATE","PROBABLE","Y",2,NA,"1341","2013-01-05","2013-02-07","2013-01-05","2013-01-26",NA,"2013-02-21",NA,NA,"701",51,"YEARS","M","WHITE","NOT HISPANIC OR LATINO","Xan_Lo","Xanomeline Low Dose","Xan_Lo","Xanomeline Low Dose","USA","2012-12-22",-14,"Xanomeline Low Dose","Xanomeline Low Dose",2013-01-05,"H",2013-01-26 23:59:59,"H",22,NA,"DISCONTINUED",NA,2013-01-05,NA,NA,NA,NA,NA,NA,2013-02-07,"Y","White","18-64","NA",NA,NA,NA,NA
"CDISCPILOT01","AE","01-701-1341",3,"E11","APPLICATION SITE PRURITUS","APPLICATION SITE ITCHING",NA,"APPLICATION SITE PRURITUS",NA,"HLT_0317",NA,"HLGT_0338",NA,"GENERAL DISORDERS AND ADMINISTRATION SITE CONDITIONS",NA,"GENERAL DISORDERS AND ADMINISTRATION SITE CONDITIONS",NA,"MODERATE","N",NA,"PROBABLE","RECOVERED/RESOLVED","N","N","N","N","N","N","N","2013-02-07","2013-01-26","2013-01-30",22,26,2013-01-05,2013-01-26,NA,2013-02-07,2013-01-26,NA,"H",2013-01-30 23:59:59,NA,"H",2013-01-26,2013-01-30,22,26,5,"days",2013-01-26,54,"mg","MODERATE","PROBABLE","Y",2,NA,"1341","2013-01-05","2013-02-07","2013-01-05","2013-01-26",NA,"2013-02-21",NA,NA,"701",51,"YEARS","M","WHITE","NOT HISPANIC OR LATINO","Xan_Lo","Xanomeline Low Dose","Xan_Lo","Xanomeline Low Dose","USA","2012-12-22",-14,"Xanomeline Low Dose","Xanomeline Low Dose",2013-01-05,"H",2013-01-26 23:59:59,"H",22,NA,"DISCONTINUED",NA,2013-01-05,NA,NA,NA,NA,NA,NA,2013-02-07,"Y","White","18-64","NA",NA,NA,NA,NA
"CDISCPILOT01","AE","01-701-1341",4,"E12","APPLICATION SITE ERYTHEMA","APPLICATION SITE REDNESS",NA,"APPLICATION SITE ERYTHEMA",NA,"HLT_0617",NA,"HLGT_0152",NA,"GENERAL DISORDERS AND ADMINISTRATION SITE CONDITIONS",NA,"GENERAL DISORDERS AND ADMINISTRATION SITE CONDITIONS",NA,"MODERATE","N",NA,"PROBABLE","NOT RECOVERED/NOT RESOLVED","N","N","N","N","N","N","N","2013-02-07","2013-01-26",NA,22,NA,2013-01-05,2013-01-26,NA,2013-02-07,2013-01-26,NA,"H",NA,NA,NA,2013-01-26,NA,22,NA,NA,NA,2013-01-26,54,"mg","MODERATE","PROBABLE","Y",2,NA,"1341","2013-01-05","2013-02-07","2013-01-05","2013-01-26",NA,"2013-02-21",NA,NA,"701",51,"YEARS","M","WHITE","NOT HISPANIC OR LATINO","Xan_Lo","Xanomeline Low Dose","Xan_Lo","Xanomeline Low Dose","USA","2012-12-22",-14,"Xanomeline Low Dose","Xanomeline Low Dose",2013-01-05,"H",2013-01-26 23:59:59,"H",22,NA,"DISCONTINUED",NA,2013-01-05,NA,NA,NA,NA,NA,NA,2013-02-07,"Y","White","18-64","NA",NA,NA,NA,NA
"CDISCPILOT01","AE","01-701-1341",5,"E13","APPLICATION SITE IRRITATION","APPLICATION SITE BURNING",NA,"APPLICATION SITE IRRITATION",NA,"HLT_0061",NA,"HLGT_0346",NA,"GENERAL DISORDERS AND ADMINISTRATION SITE CONDITIONS",NA,"GENERAL DISORDERS AND ADMINISTRATION SITE CONDITIONS",NA,"MODERATE","N",NA,"PROBABLE","RECOVERED/RESOLVED","N","N","N","N","N","N","N","2013-02-07","2013-01-26","2013-01-30",22,26,2013-01-05,2013-01-26,NA,2013-02-07,2013-01-26,NA,"H",2013-01-30 23:59:59,NA,"H",2013-01-26,2013-01-30,22,26,5,"days",2013-01-26,54,"mg","MODERATE","PROBABLE","Y",2,NA,"1341","2013-01-05","2013-02-07","2013-01-05","2013-01-26",NA,"2013-02-21",NA,NA,"701",51,"YEARS","M","WHITE","NOT HISPANIC OR LATINO","Xan_Lo","Xanomeline Low Dose","Xan_Lo","Xanomeline Low Dose","USA","2012-12-22",-14,"Xanomeline Low Dose","Xanomeline Low Dose",2013-01-05,"H",2013-01-26 23:59:59,"H",22,NA,"DISCONTINUED",NA,2013-01-05,NA,NA,NA,NA,NA,NA,2013-02-07,"Y","White","18-64","NA",NA,NA,NA,NA
"CDISCPILOT01","AE","01-701-1360",1,"E08","APPLICATION SITE ERYTHEMA","APPLICATION SITE ERYTHEMA",NA,"APPLICATION SITE ERYTHEMA",NA,"HLT_0617",NA,"HLGT_0152",NA,"GENERAL DISORDERS AND ADMINISTRATION SITE CONDITIONS",NA,"GENERAL DISORDERS AND ADMINISTRATION SITE CONDITIONS",NA,"MODERATE","N",NA,"PROBABLE","NOT RECOVERED/NOT RESOLVED","N","N","N","N","N","N","N","2013-08-14","2013-08-02",NA,3,NA,2013-07-31,2013-08-05,NA,2013-08-14,2013-08-02,NA,"H",NA,NA,NA,2013-08-02,NA,3,NA,NA,NA,2013-08-02,54,"mg","MODERATE","PROBABLE","Y",2,"Y","1360","2013-07-31","2013-08-14","2013-07-31","2013-08-05",NA,"2014-02-11",NA,NA,"701",67,"YEARS","M","WHITE","NOT HISPANIC OR LATINO","Xan_Hi","Xanomeline High Dose","Xan_Lo","Xanomeline Low Dose","USA","2013-07-24",-7,"Xanomeline High Dose","Xanomeline Low Dose",2013-07-31,"H",2013-08-05 23:59:59,"H",6,NA,"DISCONTINUED",2014-02-11,2013-07-31,NA,NA,NA,NA,NA,NA,2013-08-14,"Y","White",">64","NA",NA,NA,NA,NA
"CDISCPILOT01","AE","01-701-1360",2,"E09","APPLICATION SITE PRURITUS","APPLICATION SITE ITCHING",NA,"APPLICATION SITE PRURITUS",NA,"HLT_0317",NA,"HLGT_0338",NA,"GENERAL DISORDERS AND ADMINISTRATION SITE CONDITIONS",NA,"GENERAL DISORDERS AND ADMINISTRATION SITE CONDITIONS",NA,"MODERATE","N",NA,"PROBABLE","NOT RECOVERED/NOT RESOLVED","N","N","N","N","N","N","N","2013-08-14","2013-08-02",NA,3,NA,2013-07-31,2013-08-05,NA,2013-08-14,2013-08-02,NA,"H",NA,NA,NA,2013-08-02,NA,3,NA,NA,NA,2013-08-02,54,"mg","MODERATE","PROBABLE","Y",2,NA,"1360","2013-07-31","2013-08-14","2013-07-31","2013-08-05",NA,"2014-02-11",NA,NA,"701",67,"YEARS","M","WHITE","NOT HISPANIC OR LATINO","Xan_Hi","Xanomeline High Dose","Xan_Lo","Xanomeline Low Dose","USA","2013-07-24",-7,"Xanomeline High Dose","Xanomeline Low Dose",2013-07-31,"H",2013-08-05 23:59:59,"H",6,NA,"DISCONTINUED",2014-02-11,2013-07-31,NA,NA,NA,NA,NA,NA,2013-08-14,"Y","White",">64","NA",NA,NA,NA,NA
"CDISCPILOT01","AE","01-701-1360",3,"E10","APPLICATION SITE VESICLES","APPLICATION SITE BLISTER",NA,"APPLICATION SITE VESICLES",NA,"HLT_0180",NA,"HLGT_0576",NA,"GENERAL DISORDERS AND ADMINISTRATION SITE CONDITIONS",NA,"GENERAL DISORDERS AND ADMINISTRATION SITE CONDITIONS",NA,"MODERATE","N",NA,"PROBABLE","NOT RECOVERED/NOT RESOLVED","N","N","N","N","N","N","N","2013-08-14","2013-08-05",NA,6,NA,2013-07-31,2013-08-05,NA,2013-08-14,2013-08-05,NA,"H",NA,NA,NA,2013-08-05,NA,6,NA,NA,NA,2013-08-05,54,"mg","MODERATE","PROBABLE","Y",2,NA,"1360","2013-07-31","2013-08-14","2013-07-31","2013-08-05",NA,"2014-02-11",NA,NA,"701",67,"YEARS","M","WHITE","NOT HISPANIC OR LATINO","Xan_Hi","Xanomeline High Dose","Xan_Lo","Xanomeline Low Dose","USA","2013-07-24",-7,"Xanomeline High Dose","Xanomeline Low Dose",2013-07-31,"H",2013-08-05 23:59:59,"H",6,NA,"DISCONTINUED",2014-02-11,2013-07-31,NA,NA,NA,NA,NA,NA,2013-08-14,"Y","White",">64","NA",NA,NA,NA,NA
"CDISCPILOT01","AE","01-701-1363",1,"E09","NAUSEA","NAUSEA",NA,"NAUSEA",NA,"HLT_0742",NA,"HLGT_0326",NA,"GASTROINTESTINAL DISORDERS",NA,"GASTROINTESTINAL DISORDERS",NA,"MILD","N",NA,"REMOTE","RECOVERED/RESOLVED","N","N","N","N","N","N","N","2013-06-25","2013-06-14","2013-06-15",16,17,2013-05-30,2013-11-27,NA,2013-11-27,2013-06-14,NA,"H",2013-06-15 23:59:59,NA,"H",2013-06-14,2013-06-15,16,17,2,"days",2013-06-14,0,"mg","MILD","REMOTE","Y",1,"Y","1363","2013-05-30","2013-11-27","2013-05-30","2013-11-27",NA,"2013-11-27T10:00",NA,NA,"701",81,"YEARS","F","BLACK OR AFRICAN AMERICAN","NOT HISPANIC OR LATINO","Pbo","Placebo","Pbo","Placebo","USA","2013-05-20",-10,"Placebo","Placebo",2013-05-30,"H",2013-11-27 23:59:59,"H",182,NA,"COMPLETED",NA,2013-05-30,NA,NA,NA,NA,NA,NA,2013-11-27,"Y","Non-white",">64","NA",NA,NA,NA,NA
"CDISCPILOT01","AE","01-701-1363",3,"E11","APPLICATION SITE PRURITUS","APPLICATION SITE ITCHING",NA,"APPLICATION SITE PRURITUS",NA,"HLT_0317",NA,"HLGT_0338",NA,"GENERAL DISORDERS AND ADMINISTRATION SITE CONDITIONS",NA,"GENERAL DISORDERS AND ADMINISTRATION SITE CONDITIONS",NA,"MILD","N",NA,"PROBABLE","NOT RECOVERED/NOT RESOLVED","N","N","N","N","N","N","N","2013-07-24","2013-07-16",NA,48,NA,2013-05-30,2013-11-27,NA,2013-11-27,2013-07-16,NA,"H",NA,NA,NA,2013-07-16,NA,48,NA,NA,NA,2013-07-16,0,"mg","MILD","PROBABLE","Y",1,NA,"1363","2013-05-30","2013-11-27","2013-05-30","2013-11-27",NA,"2013-11-27T10:00",NA,NA,"701",81,"YEARS","F","BLACK OR AFRICAN AMERICAN","NOT HISPANIC OR LATINO","Pbo","Placebo","Pbo","Placebo","USA","2013-05-20",-10,"Placebo","Placebo",2013-05-30,"H",2013-11-27 23:59:59,"H",182,NA,"COMPLETED",NA,2013-05-30,NA,NA,NA,NA,NA,NA,2013-11-27,"Y","Non-white",">64","NA",NA,NA,NA,NA
"CDISCPILOT01","AE","01-701-1363",5,"E13","BACK PAIN","BACKACHE",NA,"BACK PAIN",NA,"HLT_0115",NA,"HLGT_0508",NA,"MUSCULOSKELETAL AND CONNECTIVE TISSUE DISORDERS",NA,"MUSCULOSKELETAL AND CONNECTIVE TISSUE DISORDERS",NA,"MILD","N",NA,"NONE","NOT RECOVERED/NOT RESOLVED","N","N","N","N","N","N","N","2013-10-14","2013-10-13","2013-10-15",137,139,2013-05-30,2013-11-27,NA,2013-11-27,2013-10-13,NA,"H",2013-10-15 23:59:59,NA,"H",2013-10-13,2013-10-15,137,139,3,"days",2013-10-13,0,"mg","MILD","NONE","Y",1,NA,"1363","2013-05-30","2013-11-27","2013-05-30","2013-11-27",NA,"2013-11-27T10:00",NA,NA,"701",81,"YEARS","F","BLACK OR AFRICAN AMERICAN","NOT HISPANIC OR LATINO","Pbo","Placebo","Pbo","Placebo","USA","2013-05-20",-10,"Placebo","Placebo",2013-05-30,"H",2013-11-27 23:59:59,"H",182,NA,"COMPLETED",NA,2013-05-30,NA,NA,NA,NA,NA,NA,2013-11-27,"Y","Non-white",">64","NA",NA,NA,NA,NA
"CDISCPILOT01","AE","01-701-1363",6,"E13","BACK PAIN","BACKACHE",NA,"BACK PAIN",NA,"HLT_0115",NA,"HLGT_0508",NA,"MUSCULOSKELETAL AND CONNECTIVE TISSUE DISORDERS",NA,"MUSCULOSKELETAL AND CONNECTIVE TISSUE DISORDERS",NA,"MILD","N",NA,"NONE","RECOVERED/RESOLVED","N","N","N","N","N","N","N","2013-11-13","2013-10-13","2013-10-15",137,139,2013-05-30,2013-11-27,NA,2013-11-27,2013-10-13,NA,"H",2013-10-15 23:59:59,NA,"H",2013-10-13,2013-10-15,137,139,3,"days",2013-10-13,0,"mg","MILD","NONE","Y",1,NA,"1363","2013-05-30","2013-11-27","2013-05-30","2013-11-27",NA,"2013-11-27T10:00",NA,NA,"701",81,"YEARS","F","BLACK OR AFRICAN AMERICAN","NOT HISPANIC OR LATINO","Pbo","Placebo","Pbo","Placebo","USA","2013-05-20",-10,"Placebo","Placebo",2013-05-30,"H",2013-11-27 23:59:59,"H",182,NA,"COMPLETED",NA,2013-05-30,NA,NA,NA,NA,NA,NA,2013-11-27,"Y","Non-white",">64","NA",NA,NA,NA,NA
"CDISCPILOT01","AE","01-701-1383",7,"E07","APPLICATION SITE PRURITUS","APPLICATION SITE ITCHING",NA,"APPLICATION SITE PRURITUS",NA,"HLT_0317",NA,"HLGT_0338",NA,"GENERAL DISORDERS AND ADMINISTRATION SITE CONDITIONS",NA,"GENERAL DISORDERS AND ADMINISTRATION SITE CONDITIONS",NA,"MODERATE","N",NA,"POSSIBLE","NOT RECOVERED/NOT RESOLVED","N","N","N","N","N","N","N","2013-05-30","2013-03-23",NA,48,NA,2013-02-04,2013-08-06,NA,2013-08-06,2013-03-23,NA,"H",NA,NA,NA,2013-03-23,NA,48,NA,NA,NA,2013-02-19,NA,NA,"MODERATE","POSSIBLE","Y",2,"Y","1383","2013-02-04","2013-08-06","2013-02-04","2013-08-06",NA,"2013-08-06T12:00",NA,NA,"701",72,"YEARS","F","WHITE","NOT HISPANIC OR LATINO","Xan_Hi","Xanomeline High Dose","Xan_Hi","Xanomeline High Dose","USA","2013-01-22",-13,"Xanomeline High Dose","Xanomeline High Dose",2013-02-04,"H",2013-08-06 23:59:59,"H",184,NA,"COMPLETED",NA,2013-02-04,NA,NA,NA,NA,NA,NA,2013-08-06,"Y","White",">64","NA",NA,NA,NA,NA
"CDISCPILOT01","AE","01-701-1383",8,"E09","APPLICATION SITE IRRITATION","APPLICATION SITE BURNING",NA,"APPLICATION SITE IRRITATION",NA,"HLT_0061",NA,"HLGT_0346",NA,"GENERAL DISORDERS AND ADMINISTRATION SITE CONDITIONS",NA,"GENERAL DISORDERS AND ADMINISTRATION SITE CONDITIONS",NA,"MODERATE","N",NA,"POSSIBLE","NOT RECOVERED/NOT RESOLVED","N","N","N","N","N","N","N","2013-05-30","2013-04-12",NA,68,NA,2013-02-04,2013-08-06,NA,2013-08-06,2013-04-12,NA,"H",NA,NA,NA,2013-04-12,NA,68,NA,NA,NA,2013-02-19,NA,NA,"MODERATE","POSSIBLE","Y",2,NA,"1383","2013-02-04","2013-08-06","2013-02-04","2013-08-06",NA,"2013-08-06T12:00",NA,NA,"701",72,"YEARS","F","WHITE","NOT HISPANIC OR LATINO","Xan_Hi","Xanomeline High Dose","Xan_Hi","Xanomeline High Dose","USA","2013-01-22",-13,"Xanomeline High Dose","Xanomeline High Dose",2013-02-04,"H",2013-08-06 23:59:59,"H",184,NA,"COMPLETED",NA,2013-02-04,NA,NA,NA,NA,NA,NA,2013-08-06,"Y","White",">64","NA",NA,NA,NA,NA
"CDISCPILOT01","AE","01-701-1383",12,"E13","COUGH","COUGH",NA,"COUGH",NA,"HLT_0701",NA,"HLGT_0280",NA,"RESPIRATORY, THORACIC AND MEDIASTINAL DISORDERS",NA,"RESPIRATORY, THORACIC AND MEDIASTINAL DISORDERS",NA,"MODERATE","N",NA,"NONE","RECOVERED/RESOLVED","N","N","N","N","N","N","N","2013-07-30","2013-07-17","2013-07-26",164,173,2013-02-04,2013-08-06,NA,2013-08-06,2013-07-17,NA,"H",2013-07-26 23:59:59,NA,"H",2013-07-17,2013-07-26,164,173,10,"days",2013-02-19,NA,NA,"MODERATE","NONE","Y",2,NA,"1383","2013-02-04","2013-08-06","2013-02-04","2013-08-06",NA,"2013-08-06T12:00",NA,NA,"701",72,"YEARS","F","WHITE","NOT HISPANIC OR LATINO","Xan_Hi","Xanomeline High Dose","Xan_Hi","Xanomeline High Dose","USA","2013-01-22",-13,"Xanomeline High Dose","Xanomeline High Dose",2013-02-04,"H",2013-08-06 23:59:59,"H",184,NA,"COMPLETED",NA,2013-02-04,NA,NA,NA,NA,NA,NA,2013-08-06,"Y","White",">64","NA",NA,NA,NA,NA
"CDISCPILOT01","AE","01-701-1383",1,"E04","APPLICATION SITE PRURITUS","APPLICATION SITE ITCHING",NA,"APPLICATION SITE PRURITUS",NA,"HLT_0317",NA,"HLGT_0338",NA,"GENERAL DISORDERS AND ADMINISTRATION SITE CONDITIONS",NA,"GENERAL DISORDERS AND ADMINISTRATION SITE CONDITIONS",NA,"MILD","N",NA,"PROBABLE","RECOVERED/RESOLVED","N","N","N","N","N","N","N","2013-02-19","2013-02-07","2013-02-07",4,4,2013-02-04,2013-08-06,NA,2013-08-06,2013-02-07,NA,"H",2013-02-07 23:59:59,NA,"H",2013-02-07,2013-02-07,4,4,1,"days",2013-02-07,54,"mg","MILD","PROBABLE","Y",1,NA,"1383","2013-02-04","2013-08-06","2013-02-04","2013-08-06",NA,"2013-08-06T12:00",NA,NA,"701",72,"YEARS","F","WHITE","NOT HISPANIC OR LATINO","Xan_Hi","Xanomeline High Dose","Xan_Hi","Xanomeline High Dose","USA","2013-01-22",-13,"Xanomeline High Dose","Xanomeline High Dose",2013-02-04,"H",2013-08-06 23:59:59,"H",184,NA,"COMPLETED",NA,2013-02-04,NA,NA,NA,NA,NA,NA,2013-08-06,"Y","White",">64","NA",NA,NA,NA,NA
"CDISCPILOT01","AE","01-701-1383",2,"E05","APPLICATION SITE PAIN","APPLICATION SITE PAIN",NA,"APPLICATION SITE PAIN",NA,"HLT_0342",NA,"HLGT_0085",NA,"GENERAL DISORDERS AND ADMINISTRATION SITE CONDITIONS",NA,"GENERAL DISORDERS AND ADMINISTRATION SITE CONDITIONS",NA,"MILD","N",NA,"PROBABLE","RECOVERED/RESOLVED","N","N","N","N","N","N","N","2013-02-19","2013-02-07","2013-02-07",4,4,2013-02-04,2013-08-06,NA,2013-08-06,2013-02-07,NA,"H",2013-02-07 23:59:59,NA,"H",2013-02-07,2013-02-07,4,4,1,"days",2013-02-07,54,"mg","MILD","PROBABLE","Y",1,NA,"1383","2013-02-04","2013-08-06","2013-02-04","2013-08-06",NA,"2013-08-06T12:00",NA,NA,"701",72,"YEARS","F","WHITE","NOT HISPANIC OR LATINO","Xan_Hi","Xanomeline High Dose","Xan_Hi","Xanomeline High Dose","USA","2013-01-22",-13,"Xanomeline High Dose","Xanomeline High Dose",2013-02-04,"H",2013-08-06 23:59:59,"H",184,NA,"COMPLETED",NA,2013-02-04,NA,NA,NA,NA,NA,NA,2013-08-06,"Y","White",">64","NA",NA,NA,NA,NA
"CDISCPILOT01","AE","01-701-1383",3,"E06","APPLICATION SITE ERYTHEMA","APPLICATION SITE ERYTHEMA",NA,"APPLICATION SITE ERYTHEMA",NA,"HLT_0617",NA,"HLGT_0152",NA,"GENERAL DISORDERS AND ADMINISTRATION SITE CONDITIONS",NA,"GENERAL DISORDERS AND ADMINISTRATION SITE CONDITIONS",NA,"MILD","N",NA,"POSSIBLE","RECOVERED/RESOLVED","N","N","N","N","N","N","N","2013-04-02","2013-03-23","2013-03-26",48,51,2013-02-04,2013-08-06,NA,2013-08-06,2013-03-23,NA,"H",2013-03-26 23:59:59,NA,"H",2013-03-23,2013-03-26,48,51,4,"days",2013-02-19,NA,NA,"MILD","POSSIBLE","Y",1,NA,"1383","2013-02-04","2013-08-06","2013-02-04","2013-08-06",NA,"2013-08-06T12:00",NA,NA,"701",72,"YEARS","F","WHITE","NOT HISPANIC OR LATINO","Xan_Hi","Xanomeline High Dose","Xan_Hi","Xanomeline High Dose","USA","2013-01-22",-13,"Xanomeline High Dose","Xanomeline High Dose",2013-02-04,"H",2013-08-06 23:59:59,"H",184,NA,"COMPLETED",NA,2013-02-04,NA,NA,NA,NA,NA,NA,2013-08-06,"Y","White",">64","NA",NA,NA,NA,NA
"CDISCPILOT01","AE","01-701-1383",4,"E07","APPLICATION SITE PRURITUS","APPLICATION SITE ITCHING",NA,"APPLICATION SITE PRURITUS",NA,"HLT_0317",NA,"HLGT_0338",NA,"GENERAL DISORDERS AND ADMINISTRATION SITE CONDITIONS",NA,"GENERAL DISORDERS AND ADMINISTRATION SITE CONDITIONS",NA,"MILD","N",NA,"POSSIBLE","NOT RECOVERED/NOT RESOLVED","N","N","N","N","N","N","N","2013-04-02","2013-03-23",NA,48,NA,2013-02-04,2013-08-06,NA,2013-08-06,2013-03-23,NA,"H",NA,NA,NA,2013-03-23,NA,48,NA,NA,NA,2013-02-19,NA,NA,"MILD","POSSIBLE","Y",1,NA,"1383","2013-02-04","2013-08-06","2013-02-04","2013-08-06",NA,"2013-08-06T12:00",NA,NA,"701",72,"YEARS","F","WHITE","NOT HISPANIC OR LATINO","Xan_Hi","Xanomeline High Dose","Xan_Hi","Xanomeline High Dose","USA","2013-01-22",-13,"Xanomeline High Dose","Xanomeline High Dose",2013-02-04,"H",2013-08-06 23:59:59,"H",184,NA,"COMPLETED",NA,2013-02-04,NA,NA,NA,NA,NA,NA,2013-08-06,"Y","White",">64","NA",NA,NA,NA,NA
"CDISCPILOT01","AE","01-701-1383",5,"E08","APPLICATION SITE ERYTHEMA","APPLICATION SITE ERYTHEMA",NA,"APPLICATION SITE ERYTHEMA",NA,"HLT_0617",NA,"HLGT_0152",NA,"GENERAL DISORDERS AND ADMINISTRATION SITE CONDITIONS",NA,"GENERAL DISORDERS AND ADMINISTRATION SITE CONDITIONS",NA,"MILD","N",NA,"POSSIBLE","NOT RECOVERED/NOT RESOLVED","N","N","N","N","N","N","N","2013-04-30","2013-04-12",NA,68,NA,2013-02-04,2013-08-06,NA,2013-08-06,2013-04-12,NA,"H",NA,NA,NA,2013-04-12,NA,68,NA,NA,NA,2013-02-19,NA,NA,"MILD","POSSIBLE","Y",1,NA,"1383","2013-02-04","2013-08-06","2013-02-04","2013-08-06",NA,"2013-08-06T12:00",NA,NA,"701",72,"YEARS","F","WHITE","NOT HISPANIC OR LATINO","Xan_Hi","Xanomeline High Dose","Xan_Hi","Xanomeline High Dose","USA","2013-01-22",-13,"Xanomeline High Dose","Xanomeline High Dose",2013-02-04,"H",2013-08-06 23:59:59,"H",184,NA,"COMPLETED",NA,2013-02-04,NA,NA,NA,NA,NA,NA,2013-08-06,"Y","White",">64","NA",NA,NA,NA,NA
"CDISCPILOT01","AE","01-701-1383",6,"E09","APPLICATION SITE IRRITATION","APPLICATION SITE BURNING",NA,"APPLICATION SITE IRRITATION",NA,"HLT_0061",NA,"HLGT_0346",NA,"GENERAL DISORDERS AND ADMINISTRATION SITE CONDITIONS",NA,"GENERAL DISORDERS AND ADMINISTRATION SITE CONDITIONS",NA,"MILD","N",NA,"POSSIBLE","NOT RECOVERED/NOT RESOLVED","N","N","N","N","N","N","N","2013-04-30","2013-04-12",NA,68,NA,2013-02-04,2013-08-06,NA,2013-08-06,2013-04-12,NA,"H",NA,NA,NA,2013-04-12,NA,68,NA,NA,NA,2013-02-19,NA,NA,"MILD","POSSIBLE","Y",1,NA,"1383","2013-02-04","2013-08-06","2013-02-04","2013-08-06",NA,"2013-08-06T12:00",NA,NA,"701",72,"YEARS","F","WHITE","NOT HISPANIC OR LATINO","Xan_Hi","Xanomeline High Dose","Xan_Hi","Xanomeline High Dose","USA","2013-01-22",-13,"Xanomeline High Dose","Xanomeline High Dose",2013-02-04,"H",2013-08-06 23:59:59,"H",184,NA,"COMPLETED",NA,2013-02-04,NA,NA,NA,NA,NA,NA,2013-08-06,"Y","White",">64","NA",NA,NA,NA,NA
"CDISCPILOT01","AE","01-701-1383",9,"E10","APPLICATION SITE VESICLES","APPLICATION SITE BLISTER",NA,"APPLICATION SITE VESICLES",NA,"HLT_0180",NA,"HLGT_0576",NA,"GENERAL DISORDERS AND ADMINISTRATION SITE CONDITIONS",NA,"GENERAL DISORDERS AND ADMINISTRATION SITE CONDITIONS",NA,"MILD","N",NA,"POSSIBLE","RECOVERED/RESOLVED","N","N","N","N","N","N","N","2013-05-30","2013-05-07","2013-05-24",93,110,2013-02-04,2013-08-06,NA,2013-08-06,2013-05-07,NA,"H",2013-05-24 23:59:59,NA,"H",2013-05-07,2013-05-24,93,110,18,"days",2013-02-19,NA,NA,"MILD","POSSIBLE","Y",1,NA,"1383","2013-02-04","2013-08-06","2013-02-04","2013-08-06",NA,"2013-08-06T12:00",NA,NA,"701",72,"YEARS","F","WHITE","NOT HISPANIC OR LATINO","Xan_Hi","Xanomeline High Dose","Xan_Hi","Xanomeline High Dose","USA","2013-01-22",-13,"Xanomeline High Dose","Xanomeline High Dose",2013-02-04,"H",2013-08-06 23:59:59,"H",184,NA,"COMPLETED",NA,2013-02-04,NA,NA,NA,NA,NA,NA,2013-08-06,"Y","White",">64","NA",NA,NA,NA,NA
"CDISCPILOT01","AE","01-701-1383",10,"E11","CHEST DISCOMFORT","CHEST PRESSURE",NA,"CHEST DISCOMFORT",NA,"HLT_0593",NA,"HLGT_0441",NA,"GENERAL DISORDERS AND ADMINISTRATION SITE CONDITIONS",NA,"GENERAL DISORDERS AND ADMINISTRATION SITE CONDITIONS",NA,"MILD","N",NA,"NONE","RECOVERED/RESOLVED","N","N","N","N","N","N","N","2013-06-25","2013-06-24","2013-06-24",141,141,2013-02-04,2013-08-06,NA,2013-08-06,2013-06-24,NA,"H",2013-06-24 23:59:59,NA,"H",2013-06-24,2013-06-24,141,141,1,"days",2013-02-19,NA,NA,"MILD","NONE","Y",1,NA,"1383","2013-02-04","2013-08-06","2013-02-04","2013-08-06",NA,"2013-08-06T12:00",NA,NA,"701",72,"YEARS","F","WHITE","NOT HISPANIC OR LATINO","Xan_Hi","Xanomeline High Dose","Xan_Hi","Xanomeline High Dose","USA","2013-01-22",-13,"Xanomeline High Dose","Xanomeline High Dose",2013-02-04,"H",2013-08-06 23:59:59,"H",184,NA,"COMPLETED",NA,2013-02-04,NA,NA,NA,NA,NA,NA,2013-08-06,"Y","White",">64","NA",NA,NA,NA,NA
"CDISCPILOT01","AE","01-701-1383",11,"E12","HEADACHE","FULLNESS HEAD",NA,"HEADACHE",NA,"HLT_0064",NA,"HLGT_0344",NA,"NERVOUS SYSTEM DISORDERS",NA,"NERVOUS SYSTEM DISORDERS",NA,"MILD","N",NA,"NONE","RECOVERED/RESOLVED","N","N","N","N","N","N","N","2013-06-25","2013-06-24","2013-06-24",141,141,2013-02-04,2013-08-06,NA,2013-08-06,2013-06-24,NA,"H",2013-06-24 23:59:59,NA,"H",2013-06-24,2013-06-24,141,141,1,"days",2013-02-19,NA,NA,"MILD","NONE","Y",1,NA,"1383","2013-02-04","2013-08-06","2013-02-04","2013-08-06",NA,"2013-08-06T12:00",NA,NA,"701",72,"YEARS","F","WHITE","NOT HISPANIC OR LATINO","Xan_Hi","Xanomeline High Dose","Xan_Hi","Xanomeline High Dose","USA","2013-01-22",-13,"Xanomeline High Dose","Xanomeline High Dose",2013-02-04,"H",2013-08-06 23:59:59,"H",184,NA,"COMPLETED",NA,2013-02-04,NA,NA,NA,NA,NA,NA,2013-08-06,"Y","White",">64","NA",NA,NA,NA,NA
"CDISCPILOT01","AE","01-701-1387",1,"E08","DIARRHOEA","DIARRHEA",NA,"DIARRHOEA",NA,"HLT_0148",NA,"HLGT_0588",NA,"GASTROINTESTINAL DISORDERS",NA,"GASTROINTESTINAL DISORDERS",NA,"MILD","N",NA,"REMOTE","RECOVERED/RESOLVED","N","N","N","N","N","N","N","2014-03-25","2014-03-18","2014-03-18",7,7,2014-03-12,2014-03-25,NA,2014-03-25,2014-03-18,NA,"H",2014-03-18 23:59:59,NA,"H",2014-03-18,2014-03-18,7,7,1,"days",2014-03-18,0,"mg","MILD","REMOTE","Y",1,"Y","1387","2014-03-12","2014-03-25","2014-03-12","2014-03-25",NA,"2014-08-27",NA,NA,"701",87,"YEARS","F","WHITE","NOT HISPANIC OR LATINO","Pbo","Placebo","Pbo","Placebo","USA","2014-02-23",-17,"Placebo","Placebo",2014-03-12,"H",2014-03-25 23:59:59,"H",14,NA,"DISCONTINUED",2014-08-27,2014-03-12,NA,NA,NA,NA,NA,NA,2014-03-25,"Y","White",">64","NA",NA,NA,NA,NA
"CDISCPILOT01","AE","01-701-1387",2,"E09","HYPERHIDROSIS","SWEATING",NA,"HYPERHIDROSIS",NA,"HLT_0587",NA,"HLGT_0005",NA,"SKIN AND SUBCUTANEOUS TISSUE DISORDERS",NA,"SKIN AND SUBCUTANEOUS TISSUE DISORDERS",NA,"MILD","N",NA,"REMOTE","RECOVERED/RESOLVED","N","N","N","N","N","N","N","2014-03-25","2014-03-18","2014-03-18",7,7,2014-03-12,2014-03-25,NA,2014-03-25,2014-03-18,NA,"H",2014-03-18 23:59:59,NA,"H",2014-03-18,2014-03-18,7,7,1,"days",2014-03-18,0,"mg","MILD","REMOTE","Y",1,NA,"1387","2014-03-12","2014-03-25","2014-03-12","2014-03-25",NA,"2014-08-27",NA,NA,"701",87,"YEARS","F","WHITE","NOT HISPANIC OR LATINO","Pbo","Placebo","Pbo","Placebo","USA","2014-02-23",-17,"Placebo","Placebo",2014-03-12,"H",2014-03-25 23:59:59,"H",14,NA,"DISCONTINUED",2014-08-27,2014-03-12,NA,NA,NA,NA,NA,NA,2014-03-25,"Y","White",">64","NA",NA,NA,NA,NA
"CDISCPILOT01","AE","01-701-1392",1,"E04","UPPER RESPIRATORY TRACT INFECTION","UPPER RESPIRATORY INFECTION",NA,"UPPER RESPIRATORY TRACT INFECTION",NA,"HLT_0520",NA,"HLGT_0489",NA,"INFECTIONS AND INFESTATIONS",NA,"INFECTIONS AND INFESTATIONS",NA,"MILD","N",NA,"REMOTE","NOT RECOVERED/NOT RESOLVED","N","N","N","N","N","N","N","2013-03-17","2013-03-16","2013-03-21",140,145,2012-10-28,2013-04-28,NA,2013-04-28,2013-03-16,NA,"H",2013-03-21 23:59:59,NA,"H",2013-03-16,2013-03-21,140,145,6,"days",2013-03-16,0,"mg","MILD","REMOTE","Y",1,"Y","1392","2012-10-28","2013-04-28","2012-10-28","2013-04-28",NA,"2013-04-28T11:30",NA,NA,"701",78,"YEARS","M","WHITE","NOT HISPANIC OR LATINO","Pbo","Placebo","Pbo","Placebo","USA","2012-10-17",-11,"Placebo","Placebo",2012-10-28,"H",2013-04-28 23:59:59,"H",183,NA,"COMPLETED",NA,2012-10-28,NA,NA,NA,NA,NA,NA,2013-04-28,"Y","White",">64","NA",NA,NA,NA,NA
"CDISCPILOT01","AE","01-701-1392",2,"E04","UPPER RESPIRATORY TRACT INFECTION","UPPER RESPIRATORY INFECTION",NA,"UPPER RESPIRATORY TRACT INFECTION",NA,"HLT_0520",NA,"HLGT_0489",NA,"INFECTIONS AND INFESTATIONS",NA,"INFECTIONS AND INFESTATIONS",NA,"MILD","N",NA,"REMOTE","RECOVERED/RESOLVED","N","N","N","N","N","N","N","2013-04-15","2013-03-16","2013-03-21",140,145,2012-10-28,2013-04-28,NA,2013-04-28,2013-03-16,NA,"H",2013-03-21 23:59:59,NA,"H",2013-03-16,2013-03-21,140,145,6,"days",2013-03-16,0,"mg","MILD","REMOTE","Y",1,NA,"1392","2012-10-28","2013-04-28","2012-10-28","2013-04-28",NA,"2013-04-28T11:30",NA,NA,"701",78,"YEARS","M","WHITE","NOT HISPANIC OR LATINO","Pbo","Placebo","Pbo","Placebo","USA","2012-10-17",-11,"Placebo","Placebo",2012-10-28,"H",2013-04-28 23:59:59,"H",183,NA,"COMPLETED",NA,2012-10-28,NA,NA,NA,NA,NA,NA,2013-04-28,"Y","White",">64","NA",NA,NA,NA,NA
"CDISCPILOT01","AE","01-701-1415",1,"E09","UPPER RESPIRATORY TRACT INFECTION","UPPER RESPIRATORY INFECTION",NA,"UPPER RESPIRATORY TRACT INFECTION",NA,"HLT_0520",NA,"HLGT_0489",NA,"INFECTIONS AND INFESTATIONS",NA,"INFECTIONS AND INFESTATIONS",NA,"MILD","N",NA,"NONE","NOT RECOVERED/NOT RESOLVED","N","N","N","N","N","N","N","2013-10-22","2013-10-21","2013-11-04",29,43,2013-09-23,2014-03-24,NA,2014-03-24,2013-10-21,NA,"H",2013-11-04 23:59:59,NA,"H",2013-10-21,2013-11-04,29,43,15,"days",2013-10-21,0,"mg","MILD","NONE","Y",1,"Y","1415","2013-09-23","2014-03-24","2013-09-23","2014-03-24",NA,"2014-03-24T12:34",NA,NA,"701",85,"YEARS","M","WHITE","NOT HISPANIC OR LATINO","Pbo","Placebo","Pbo","Placebo","USA","2013-09-15",-8,"Placebo","Placebo",2013-09-23,"H",2014-03-24 23:59:59,"H",183,NA,"COMPLETED",NA,2013-09-23,NA,NA,NA,NA,NA,NA,2014-03-24,"Y","White",">64","NA",NA,NA,NA,NA
"CDISCPILOT01","AE","01-701-1415",2,"E09","UPPER RESPIRATORY TRACT INFECTION","UPPER RESPIRATORY INFECTION",NA,"UPPER RESPIRATORY TRACT INFECTION",NA,"HLT_0520",NA,"HLGT_0489",NA,"INFECTIONS AND INFESTATIONS",NA,"INFECTIONS AND INFESTATIONS",NA,"MILD","N",NA,"NONE","RECOVERED/RESOLVED","N","N","N","N","N","N","N","2013-11-21","2013-10-21","2013-11-04",29,43,2013-09-23,2014-03-24,NA,2014-03-24,2013-10-21,NA,"H",2013-11-04 23:59:59,NA,"H",2013-10-21,2013-11-04,29,43,15,"days",2013-10-21,0,"mg","MILD","NONE","Y",1,NA,"1415","2013-09-23","2014-03-24","2013-09-23","2014-03-24",NA,"2014-03-24T12:34",NA,NA,"701",85,"YEARS","M","WHITE","NOT HISPANIC OR LATINO","Pbo","Placebo","Pbo","Placebo","USA","2013-09-15",-8,"Placebo","Placebo",2013-09-23,"H",2014-03-24 23:59:59,"H",183,NA,"COMPLETED",NA,2013-09-23,NA,NA,NA,NA,NA,NA,2014-03-24,"Y","White",">64","NA",NA,NA,NA,NA
"CDISCPILOT01","AE","01-701-1415",3,"E10","MICTURITION URGENCY","URINARY URGENCY",NA,"MICTURITION URGENCY",NA,"HLT_0294",NA,"HLGT_0483",NA,"RENAL AND URINARY DISORDERS",NA,"RENAL AND URINARY DISORDERS",NA,"MILD","N",NA,"NONE","NOT RECOVERED/NOT RESOLVED","N","N","N","N","N","N","N","2013-12-21","2013-12-02",NA,71,NA,2013-09-23,2014-03-24,NA,2014-03-24,2013-12-02,NA,"H",NA,NA,NA,2013-12-02,NA,71,NA,NA,NA,2013-12-02,0,"mg","MILD","NONE","Y",1,NA,"1415","2013-09-23","2014-03-24","2013-09-23","2014-03-24",NA,"2014-03-24T12:34",NA,NA,"701",85,"YEARS","M","WHITE","NOT HISPANIC OR LATINO","Pbo","Placebo","Pbo","Placebo","USA","2013-09-15",-8,"Placebo","Placebo",2013-09-23,"H",2014-03-24 23:59:59,"H",183,NA,"COMPLETED",NA,2013-09-23,NA,NA,NA,NA,NA,NA,2014-03-24,"Y","White",">64","NA",NA,NA,NA,NA
"CDISCPILOT01","AE","01-701-1415",4,"E11","UPPER RESPIRATORY TRACT INFECTION","UPPER RESPIRATORY INFECTION",NA,"UPPER RESPIRATORY TRACT INFECTION",NA,"HLT_0520",NA,"HLGT_0489",NA,"INFECTIONS AND INFESTATIONS",NA,"INFECTIONS AND INFESTATIONS",NA,"MILD","N",NA,"REMOTE","NOT RECOVERED/NOT RESOLVED","N","N","N","N","N","N","N","2014-02-10","2014-01-21","2014-02-10",121,141,2013-09-23,2014-03-24,NA,2014-03-24,2014-01-21,NA,"H",2014-02-10 23:59:59,NA,"H",2014-01-21,2014-02-10,121,141,21,"days",2014-01-21,0,"mg","MILD","REMOTE","Y",1,NA,"1415","2013-09-23","2014-03-24","2013-09-23","2014-03-24",NA,"2014-03-24T12:34",NA,NA,"701",85,"YEARS","M","WHITE","NOT HISPANIC OR LATINO","Pbo","Placebo","Pbo","Placebo","USA","2013-09-15",-8,"Placebo","Placebo",2013-09-23,"H",2014-03-24 23:59:59,"H",183,NA,"COMPLETED",NA,2013-09-23,NA,NA,NA,NA,NA,NA,2014-03-24,"Y","White",">64","NA",NA,NA,NA,NA
"CDISCPILOT01","AE","01-701-1415",5,"E11","UPPER RESPIRATORY TRACT INFECTION","UPPER RESPIRATORY INFECTION",NA,"UPPER RESPIRATORY TRACT INFECTION",NA,"HLT_0520",NA,"HLGT_0489",NA,"INFECTIONS AND INFESTATIONS",NA,"INFECTIONS AND INFESTATIONS",NA,"MILD","N",NA,"REMOTE","RECOVERED/RESOLVED","N","N","N","N","N","N","N","2014-03-10","2014-01-21","2014-02-10",121,141,2013-09-23,2014-03-24,NA,2014-03-24,2014-01-21,NA,"H",2014-02-10 23:59:59,NA,"H",2014-01-21,2014-02-10,121,141,21,"days",2014-01-21,0,"mg","MILD","REMOTE","Y",1,NA,"1415","2013-09-23","2014-03-24","2013-09-23","2014-03-24",NA,"2014-03-24T12:34",NA,NA,"701",85,"YEARS","M","WHITE","NOT HISPANIC OR LATINO","Pbo","Placebo","Pbo","Placebo","USA","2013-09-15",-8,"Placebo","Placebo",2013-09-23,"H",2014-03-24 23:59:59,"H",183,NA,"COMPLETED",NA,2013-09-23,NA,NA,NA,NA,NA,NA,2014-03-24,"Y","White",">64","NA",NA,NA,NA,NA
"CDISCPILOT01","AE","01-701-1415",6,"E12","DIARRHOEA","DIARRHEA",NA,"DIARRHOEA",NA,"HLT_0148",NA,"HLGT_0588",NA,"GASTROINTESTINAL DISORDERS",NA,"GASTROINTESTINAL DISORDERS",NA,"MILD","N",NA,"NONE","RECOVERED/RESOLVED","N","N","N","N","N","N","N","2014-03-10","2014-03-09","2014-03-09",168,168,2013-09-23,2014-03-24,NA,2014-03-24,2014-03-09,NA,"H",2014-03-09 23:59:59,NA,"H",2014-03-09,2014-03-09,168,168,1,"days",2014-03-09,0,"mg","MILD","NONE","Y",1,NA,"1415","2013-09-23","2014-03-24","2013-09-23","2014-03-24",NA,"2014-03-24T12:34",NA,NA,"701",85,"YEARS","M","WHITE","NOT HISPANIC OR LATINO","Pbo","Placebo","Pbo","Placebo","USA","2013-09-15",-8,"Placebo","Placebo",2013-09-23,"H",2014-03-24 23:59:59,"H",183,NA,"COMPLETED",NA,2013-09-23,NA,NA,NA,NA,NA,NA,2014-03-24,"Y","White",">64","NA",NA,NA,NA,NA
"CDISCPILOT01","AE","01-701-1442",1,"E03","APPLICATION SITE PRURITUS","APPLICATION SITE ITCHING",NA,"APPLICATION SITE PRURITUS",NA,"HLT_0317",NA,"HLGT_0338",NA,"GENERAL DISORDERS AND ADMINISTRATION SITE CONDITIONS",NA,"GENERAL DISORDERS AND ADMINISTRATION SITE CONDITIONS",NA,"MILD","N",NA,"PROBABLE","NOT RECOVERED/NOT RESOLVED","N","N","N","N","N","N","N","2014-01-18","2014-01-10",NA,77,NA,2013-10-26,2014-04-26,NA,2014-04-26,2014-01-10,NA,"H",NA,NA,NA,2014-01-10,NA,77,NA,NA,NA,2014-01-10,54,"mg","MILD","PROBABLE","Y",1,"Y","1442","2013-10-26","2014-04-26","2013-10-26","2014-04-26",NA,"2014-04-26T10:00",NA,NA,"701",57,"YEARS","F","BLACK OR AFRICAN AMERICAN","NOT HISPANIC OR LATINO","Xan_Lo","Xanomeline Low Dose","Xan_Lo","Xanomeline Low Dose","USA","2013-10-17",-9,"Xanomeline Low Dose","Xanomeline Low Dose",2013-10-26,"H",2014-04-26 23:59:59,"H",183,NA,"COMPLETED",NA,2013-10-26,NA,NA,NA,NA,NA,NA,2014-04-26,"Y","Non-white","18-64","NA",NA,NA,NA,NA
"CDISCPILOT01","AE","01-701-1444",4,"E11","APPLICATION SITE ERYTHEMA","APPLICATION SITE ERYTHEMA",NA,"APPLICATION SITE ERYTHEMA",NA,"HLT_0617",NA,"HLGT_0152",NA,"GENERAL DISORDERS AND ADMINISTRATION SITE CONDITIONS",NA,"GENERAL DISORDERS AND ADMINISTRATION SITE CONDITIONS",NA,"MODERATE","N",NA,"POSSIBLE","NOT RECOVERED/NOT RESOLVED","N","N","N","N","N","N","N","2013-02-13","2013-01-19",NA,15,NA,2013-01-05,2013-02-12,NA,2013-02-13,2013-01-19,NA,"H",NA,NA,NA,2013-01-19,NA,15,NA,NA,NA,2013-01-18,NA,NA,"MODERATE","POSSIBLE","Y",2,"Y","1444","2013-01-05","2013-02-13","2013-01-05","2013-02-12",NA,"2013-06-20",NA,NA,"701",63,"YEARS","M","WHITE","HISPANIC OR LATINO","Xan_Hi","Xanomeline High Dose","Xan_Hi","Xanomeline High Dose","USA","2012-12-31",-5,"Xanomeline High Dose","Xanomeline High Dose",2013-01-05,"H",2013-02-12 23:59:59,"H",39,NA,"DISCONTINUED",2013-06-20,2013-01-05,NA,NA,NA,NA,NA,NA,2013-02-13,"Y","White","18-64","NA",NA,NA,NA,NA
"CDISCPILOT01","AE","01-701-1444",5,"E12","APPLICATION SITE PRURITUS","APPLICATION SITE ITCHING",NA,"APPLICATION SITE PRURITUS",NA,"HLT_0317",NA,"HLGT_0338",NA,"GENERAL DISORDERS AND ADMINISTRATION SITE CONDITIONS",NA,"GENERAL DISORDERS AND ADMINISTRATION SITE CONDITIONS",NA,"MODERATE","N",NA,"PROBABLE","NOT RECOVERED/NOT RESOLVED","N","N","N","N","N","N","N","2013-02-13","2013-01-19",NA,15,NA,2013-01-05,2013-02-12,NA,2013-02-13,2013-01-19,NA,"H",NA,NA,NA,2013-01-19,NA,15,NA,NA,NA,2013-01-18,NA,NA,"MODERATE","PROBABLE","Y",2,NA,"1444","2013-01-05","2013-02-13","2013-01-05","2013-02-12",NA,"2013-06-20",NA,NA,"701",63,"YEARS","M","WHITE","HISPANIC OR LATINO","Xan_Hi","Xanomeline High Dose","Xan_Hi","Xanomeline High Dose","USA","2012-12-31",-5,"Xanomeline High Dose","Xanomeline High Dose",2013-01-05,"H",2013-02-12 23:59:59,"H",39,NA,"DISCONTINUED",2013-06-20,2013-01-05,NA,NA,NA,NA,NA,NA,2013-02-13,"Y","White","18-64","NA",NA,NA,NA,NA
"CDISCPILOT01","AE","01-701-1444",6,"E15","APPLICATION SITE IRRITATION","APPLICATION SITE BURNING",NA,"APPLICATION SITE IRRITATION",NA,"HLT_0061",NA,"HLGT_0346",NA,"GENERAL DISORDERS AND ADMINISTRATION SITE CONDITIONS",NA,"GENERAL DISORDERS AND ADMINISTRATION SITE CONDITIONS",NA,"MODERATE","N",NA,"PROBABLE","NOT RECOVERED/NOT RESOLVED","N","N","N","N","N","N","N","2013-02-13","2013-02-04",NA,31,NA,2013-01-05,2013-02-12,NA,2013-02-13,2013-02-04,NA,"H",NA,NA,NA,2013-02-04,NA,31,NA,NA,NA,2013-01-18,NA,NA,"MODERATE","PROBABLE","Y",2,NA,"1444","2013-01-05","2013-02-13","2013-01-05","2013-02-12",NA,"2013-06-20",NA,NA,"701",63,"YEARS","M","WHITE","HISPANIC OR LATINO","Xan_Hi","Xanomeline High Dose","Xan_Hi","Xanomeline High Dose","USA","2012-12-31",-5,"Xanomeline High Dose","Xanomeline High Dose",2013-01-05,"H",2013-02-12 23:59:59,"H",39,NA,"DISCONTINUED",2013-06-20,2013-01-05,NA,NA,NA,NA,NA,NA,2013-02-13,"Y","White","18-64","NA",NA,NA,NA,NA
"CDISCPILOT01","AE","01-701-1444",7,"E16","APPLICATION SITE VESICLES","APPLICATION SITE BLISTER",NA,"APPLICATION SITE VESICLES",NA,"HLT_0180",NA,"HLGT_0576",NA,"GENERAL DISORDERS AND ADMINISTRATION SITE CONDITIONS",NA,"GENERAL DISORDERS AND ADMINISTRATION SITE CONDITIONS",NA,"MODERATE","N",NA,"PROBABLE","NOT RECOVERED/NOT RESOLVED","N","N","N","N","N","N","N","2013-02-13","2013-02-04",NA,31,NA,2013-01-05,2013-02-12,NA,2013-02-13,2013-02-04,NA,"H",NA,NA,NA,2013-02-04,NA,31,NA,NA,NA,2013-01-18,NA,NA,"MODERATE","PROBABLE","Y",2,NA,"1444","2013-01-05","2013-02-13","2013-01-05","2013-02-12",NA,"2013-06-20",NA,NA,"701",63,"YEARS","M","WHITE","HISPANIC OR LATINO","Xan_Hi","Xanomeline High Dose","Xan_Hi","Xanomeline High Dose","USA","2012-12-31",-5,"Xanomeline High Dose","Xanomeline High Dose",2013-01-05,"H",2013-02-12 23:59:59,"H",39,NA,"DISCONTINUED",2013-06-20,2013-01-05,NA,NA,NA,NA,NA,NA,2013-02-13,"Y","White","18-64","NA",NA,NA,NA,NA
"CDISCPILOT01","AE","01-701-1444",1,"E11","APPLICATION SITE ERYTHEMA","APPLICATION SITE ERYTHEMA",NA,"APPLICATION SITE ERYTHEMA",NA,"HLT_0617",NA,"HLGT_0152",NA,"GENERAL DISORDERS AND ADMINISTRATION SITE CONDITIONS",NA,"GENERAL DISORDERS AND ADMINISTRATION SITE CONDITIONS",NA,"MILD","N",NA,"POSSIBLE","NOT RECOVERED/NOT RESOLVED","N","N","N","N","N","N","N","2013-01-31","2013-01-19",NA,15,NA,2013-01-05,2013-02-12,NA,2013-02-13,2013-01-19,NA,"H",NA,NA,NA,2013-01-19,NA,15,NA,NA,NA,2013-01-18,NA,NA,"MILD","POSSIBLE","Y",1,NA,"1444","2013-01-05","2013-02-13","2013-01-05","2013-02-12",NA,"2013-06-20",NA,NA,"701",63,"YEARS","M","WHITE","HISPANIC OR LATINO","Xan_Hi","Xanomeline High Dose","Xan_Hi","Xanomeline High Dose","USA","2012-12-31",-5,"Xanomeline High Dose","Xanomeline High Dose",2013-01-05,"H",2013-02-12 23:59:59,"H",39,NA,"DISCONTINUED",2013-06-20,2013-01-05,NA,NA,NA,NA,NA,NA,2013-02-13,"Y","White","18-64","NA",NA,NA,NA,NA
"CDISCPILOT01","AE","01-701-1444",2,"E12","APPLICATION SITE PRURITUS","APPLICATION SITE ITCHING",NA,"APPLICATION SITE PRURITUS",NA,"HLT_0317",NA,"HLGT_0338",NA,"GENERAL DISORDERS AND ADMINISTRATION SITE CONDITIONS",NA,"GENERAL DISORDERS AND ADMINISTRATION SITE CONDITIONS",NA,"MILD","N",NA,"PROBABLE","NOT RECOVERED/NOT RESOLVED","N","N","N","N","N","N","N","2013-01-31","2013-01-19",NA,15,NA,2013-01-05,2013-02-12,NA,2013-02-13,2013-01-19,NA,"H",NA,NA,NA,2013-01-19,NA,15,NA,NA,NA,2013-01-18,NA,NA,"MILD","PROBABLE","Y",1,NA,"1444","2013-01-05","2013-02-13","2013-01-05","2013-02-12",NA,"2013-06-20",NA,NA,"701",63,"YEARS","M","WHITE","HISPANIC OR LATINO","Xan_Hi","Xanomeline High Dose","Xan_Hi","Xanomeline High Dose","USA","2012-12-31",-5,"Xanomeline High Dose","Xanomeline High Dose",2013-01-05,"H",2013-02-12 23:59:59,"H",39,NA,"DISCONTINUED",2013-06-20,2013-01-05,NA,NA,NA,NA,NA,NA,2013-02-13,"Y","White","18-64","NA",NA,NA,NA,NA
"CDISCPILOT01","AE","01-701-1444",3,"E13","SALIVARY HYPERSECRETION","HYPERSALIVATION",NA,"SALIVARY HYPERSECRETION",NA,"HLT_0374",NA,"HLGT_0488",NA,"GASTROINTESTINAL DISORDERS",NA,"GASTROINTESTINAL DISORDERS",NA,"MILD","N",NA,"POSSIBLE","NOT RECOVERED/NOT RESOLVED","N","N","N","N","N","N","N","2013-01-31","2013-01-19",NA,15,NA,2013-01-05,2013-02-12,NA,2013-02-13,2013-01-19,NA,"H",NA,NA,NA,2013-01-19,NA,15,NA,NA,NA,2013-01-18,NA,NA,"MILD","POSSIBLE","Y",1,NA,"1444","2013-01-05","2013-02-13","2013-01-05","2013-02-12",NA,"2013-06-20",NA,NA,"701",63,"YEARS","M","WHITE","HISPANIC OR LATINO","Xan_Hi","Xanomeline High Dose","Xan_Hi","Xanomeline High Dose","USA","2012-12-31",-5,"Xanomeline High Dose","Xanomeline High Dose",2013-01-05,"H",2013-02-12 23:59:59,"H",39,NA,"DISCONTINUED",2013-06-20,2013-01-05,NA,NA,NA,NA,NA,NA,2013-02-13,"Y","White","18-64","NA",NA,NA,NA,NA
